File: data/XRD_data/2018_8-7XRD/2018_8-7 FAGACs_2p5PEAI001_exported.xy
'Id: "" Comment: "Integrate frame 2018_8-7 FAGACs_2p5PEAI001.gfrmwith cursor Full Frame Cursor #6" Operator: "MAF user" Anode: "Cu" Scantype: "TwoTheta" TimePerStep: "90"
10.74 6.43092
10.78 6.19684
10.82 5.75119
10.86 5.52277
10.9 5.16832
10.94 5.21377
10.98 5.1478
11.02 5.23799
11.06 4.94262
11.1 4.87824
11.14 5.04549
11.18 5.01138
11.22 4.89934
11.26 4.96939
11.3 4.84084
11.34 4.9943
11.38 4.8914
11.42 4.87392
11.46 4.89141
11.5 4.81081
11.54 4.89819
11.58 4.75325
11.62 4.83541
11.66 4.67018
11.7 4.7589
11.74 4.79475
11.78 4.77837
11.82 4.82079
11.86 4.98985
11.9 4.90535
11.94 4.72416
11.98 4.8364
12.02 4.96535
12.06 4.76852
12.1 4.68174
12.14 4.78916
12.18 4.89534
12.22 5.14748
12.26 5.05448
12.3 4.89718
12.34 4.82925
12.38 4.7186
12.42 4.78568
12.46 4.83079
12.5 4.87817
12.54 4.88075
12.58 4.89405
12.62 4.92163
12.66 4.69605
12.7 4.7052
12.74 4.8716
12.78 4.83158
12.82 4.84307
12.86 4.75555
12.9 4.69081
12.94 4.83743
12.98 4.88661
13.02 4.84587
13.06 4.87661
13.1 4.89363
13.14 4.8199
13.18 4.80801
13.22 4.93413
13.26 4.85934
13.3 4.82128
13.34 4.90147
13.38 4.92676
13.42 4.93496
13.46 4.8508
13.5 4.98217
13.54 5.04461
13.58 5.13658
13.62 5.07986
13.66 5.03437
13.7 4.9184
13.74 4.95486
13.78 5.08083
13.82 5.07564
13.86 5.11582
13.9 5.11309
13.94 5.18289
13.98 5.21757
14.02 5.17497
14.06 5.27478
14.1 5.27956
14.14 5.2808
14.18 5.37617
14.22 5.28369
14.26 5.23169
14.3 5.41346
14.34 5.49038
14.38 5.63018
14.42 5.82324
14.46 6.0778
14.5 6.40922
14.54 6.8838
14.58 7.57142
14.62 8.19495
14.66 8.80111
14.7 9.81423
14.74 10.649
14.78 10.9821
14.82 11.0099
14.86 10.4152
14.9 9.36745
14.94 8.69358
14.98 7.83027
15.02 7.04946
15.06 6.55215
15.1 5.97272
15.14 5.78124
15.18 5.65972
15.22 5.45568
15.26 5.4025
15.3 5.23656
15.34 5.2175
15.38 5.08451
15.42 5.11946
15.46 5.1079
15.5 5.14243
15.54 5.0952
15.58 5.105
15.62 5.12276
15.66 5.08096
15.7 4.99349
15.74 4.92811
15.78 4.96546
15.82 4.90696
15.86 4.92744
15.9 4.9003
15.94 4.87651
15.98 4.96364
16.02 4.91737
16.06 4.90788
16.1 5.02794
16.14 4.97802
16.18 4.9953
16.22 4.96969
16.26 4.93321
16.3 4.95199
16.34 5.00988
16.38 5.08924
16.42 5.04441
16.46 5.04493
16.5 5.05252
16.54 4.99695
16.58 5.16003
16.62 5.02001
16.66 5.05692
16.7 5.11641
16.74 5.10969
16.78 5.22622
16.82 5.13677
16.86 5.14455
16.9 5.10923
16.94 4.95329
16.98 4.98942
17.02 4.97617
17.06 5.02438
17.1 5.05502
17.14 5.09367
17.18 5.06197
17.22 5.12694
17.26 5.07938
17.3 5.07516
17.34 5.14908
17.38 5.11887
17.42 5.16905
17.46 5.20811
17.5 5.08648
17.54 5.11799
17.58 5.25557
17.62 5.24552
17.66 5.24818
17.7 5.27967
17.74 5.26344
17.78 5.20753
17.82 5.29108
17.86 5.29958
17.9 5.3503
17.94 5.28492
17.98 5.35207
18.02 5.3449
18.06 5.2781
18.1 5.34011
18.14 5.30519
18.18 5.30339
18.22 5.34801
18.26 5.43987
18.3 5.39988
18.34 5.37443
18.38 5.40893
18.42 5.39625
18.46 5.35508
18.5 5.44521
18.54 5.49072
18.58 5.51654
18.62 5.48441
18.66 5.51571
18.7 5.52952
18.74 5.50678
18.78 5.53673
18.82 5.57707
18.86 5.53371
18.9 5.4563
18.94 5.43263
18.98 5.59954
19.02 5.62015
19.06 5.622
19.1 5.61581
19.14 5.68545
19.18 5.69194
19.22 5.65609
19.26 5.69093
19.3 5.70973
19.34 5.71787
19.38 5.69491
19.42 5.66545
19.46 5.74888
19.5 5.81487
19.54 5.87663
19.58 5.88547
19.62 5.90832
19.66 5.83786
19.7 5.92951
19.74 5.96527
19.78 6.01127
19.82 5.89129
19.86 5.94033
19.9 5.9939
19.94 6.09496
19.98 6.04158
20.02 5.98345
20.06 6.01901
20.1 6.07451
20.14 6.08725
20.18 6.06321
20.22 6.11532
20.26 6.12928
20.3 6.16541
20.34 6.18303
20.38 6.28151
20.42 6.30136
20.46 6.24493
20.5 6.3686
20.54 6.51823
20.58 6.54849
20.62 6.6847
20.66 6.90934
20.7 7.12069
20.74 7.24421
20.78 7.71682
20.82 8.066
20.86 8.51677
20.9 8.95419
20.94 9.04214
20.98 9.04462
21.02 9.07637
21.06 8.77166
21.1 8.54901
21.14 8.04654
21.18 7.72868
21.22 7.47039
21.26 7.27204
21.3 7.06557
21.34 6.98772
21.38 6.94375
21.42 6.81265
21.46 6.83095
21.5 6.7936
21.54 6.73343
21.58 6.77284
21.62 6.76908
21.66 6.6768
21.7 6.73812
21.74 6.79849
21.78 6.76771
21.82 6.7597
21.86 6.70452
21.9 6.74529
21.94 6.68538
21.98 6.87624
22.02 6.85068
22.06 6.81659
22.1 6.80316
22.14 6.85508
22.18 6.82493
22.22 6.90928
22.26 6.99256
22.3 6.98341
22.34 6.91477
22.38 6.97243
22.42 6.96323
22.46 7.06307
22.5 7.16031
22.54 7.26996
22.58 7.29149
22.62 7.17893
22.66 7.07807
22.7 7.1426
22.74 7.18671
22.78 7.23876
22.82 7.21519
22.86 7.20113
22.9 7.3009
22.94 7.18261
22.98 7.14234
23.02 7.18421
23.06 7.21991
23.1 7.20397
23.14 7.31273
23.18 7.43369
23.22 7.3379
23.26 7.39563
23.3 7.35558
23.34 7.35072
23.38 7.43228
23.42 7.4145
23.46 7.45248
23.5 7.31202
23.54 7.45963
23.58 7.43155
23.62 7.45556
23.66 7.42122
23.7 7.48596
23.74 7.43785
23.78 7.31845
23.82 7.45848
23.86 7.45661
23.9 7.32811
23.94 7.41848
23.98 7.42568
24.02 7.3783
24.06 7.44084
24.1 7.43348
24.14 7.30945
24.18 7.38963
24.22 7.47482
24.26 7.44701
24.3 7.41771
24.34 7.44265
24.38 7.4248
24.42 7.39681
24.46 7.40609
24.5 7.4014
24.54 7.39804
24.58 7.40806
24.62 7.54093
24.66 7.40549
24.7 7.35303
24.74 7.34497
24.78 7.36153
24.82 7.40017
24.86 7.47148
24.9 7.45538
24.94 7.46234
24.98 7.48104
25.02 7.48406
25.06 7.58753
25.1 7.49279
25.14 7.51738
25.18 7.65671
25.22 7.8746
25.26 7.82169
25.3 7.79044
25.34 8.00236
25.38 8.01202
25.42 8.18486
25.46 8.30582
25.5 8.29963
25.54 8.28256
25.58 8.25635
25.62 8.03966
25.66 7.75089
25.7 7.84317
25.74 7.9459
25.78 7.73396
25.82 7.69124
25.86 7.69563
25.9 7.69711
25.94 7.52352
25.98 7.4797
26.02 7.53027
26.06 7.4021
26.1 7.50908
26.14 7.56005
26.18 7.55456
26.22 7.63394
26.26 7.57885
26.3 7.56076
26.34 7.52439
26.38 7.6078
26.42 7.49537
26.46 7.4928
26.5 7.54644
26.54 7.54995
26.58 7.41715
26.62 7.43841
26.66 7.5738
26.7 7.52911
26.74 7.58385
26.78 7.5302
26.82 7.47572
26.86 7.29223
26.9 7.61429
26.94 7.45557
26.98 7.54692
27.02 7.50032
27.06 7.48338
27.1 7.44372
27.14 7.43109
27.18 7.61417
27.22 7.56105
27.26 7.46658
27.3 7.52431
27.34 7.47251
27.38 7.38704
27.42 7.50376
27.46 7.53386
27.5 7.53023
27.54 7.55209
27.58 7.60354
27.62 7.52621
27.66 7.38743
27.7 7.52313
27.74 7.57568
27.78 7.52901
27.82 7.54284
27.86 7.45586
27.9 7.48261
27.94 7.66207
27.98 7.55668
28.02 7.3322
28.06 7.47511
28.1 7.49172
28.14 7.53665
28.18 7.4907
28.22 7.45213
28.26 7.50578
28.3 7.46025
28.34 7.52302
28.38 7.62671
28.42 7.61431
28.46 7.58759
28.5 7.56861
28.54 7.69937
28.58 7.56307
28.62 7.66199
28.66 7.66827
28.7 7.73979
28.74 7.70662
28.78 7.82471
28.82 7.69556
28.86 7.94111
28.9 7.89468
28.94 7.98945
28.98 8.05087
29.02 8.07516
29.06 8.04042
29.1 8.19952
29.14 8.58678
29.18 8.77257
29.22 9.20761
29.26 9.52432
29.3 10.101
29.34 10.5296
29.38 11.2431
29.42 11.6649
29.46 12.0394
29.5 12.1668
29.54 12.1601
29.58 11.842
29.62 11.1167
29.66 10.5541
29.7 10.1129
29.74 9.47996
29.78 8.96225
29.82 8.53415
29.86 8.30069
29.9 8.23483
29.94 7.98636
29.98 7.8765
30.02 7.84073
30.06 7.57384
30.1 7.31124
30.14 7.40933
30.18 7.42695
30.22 7.51976
30.26 7.41786
30.3 7.37184
30.34 7.33547
30.38 7.37127
30.42 7.22351
30.46 7.1127
30.5 7.2481
30.54 7.23339
30.58 7.28361
30.62 7.20622
30.66 7.18319
30.7 7.23374
30.74 7.29375
30.78 7.2425
30.82 7.19637
30.86 7.13739
30.9 7.07915
30.94 7.13896
30.98 7.20063
31.02 7.17756
31.06 7.13407
31.1 6.99706
31.14 7.054
31.18 7.08578
31.22 7.15299
31.26 7.08521
31.3 7.0655
31.34 7.00143
31.38 7.05922
31.42 7.04016
31.46 6.90068
31.5 6.93403
31.54 6.88226
31.58 6.91167
31.62 7.03776
31.66 6.99703
31.7 6.95324
31.74 7.06033
31.78 7.11027
31.82 7.09394
31.86 7.16706
31.9 7.06778
31.94 7.03988
31.98 7.01318
32.02 7.20758
32.06 6.956
32.1 6.95067
32.14 7.00569
32.18 6.94964
32.22 7.0114
32.26 7.08756
32.3 7.06421
32.34 7.05331
32.38 6.91094
32.42 7.0103
32.46 6.99318
32.5 7.08907
32.54 7.09529
32.58 7.26303
32.62 7.19536
32.66 7.15048
32.7 7.43878
32.74 7.72447
32.78 7.8634
32.82 8.11838
32.86 8.2385
32.9 8.62288
32.94 8.71262
32.98 9.05738
33.02 9.18485
33.06 9.20581
33.1 8.91127
33.14 8.49181
33.18 8.37551
33.22 8.02455
33.26 7.76218
33.3 7.55506
33.34 7.29786
33.38 7.00589
33.42 6.8543
33.46 6.97065
33.5 6.77307
33.54 6.98112
33.58 6.84319
33.62 6.72003
33.66 6.7836
33.7 6.56659
33.74 6.47229
33.78 6.58064
33.82 6.58013
33.86 6.55538
33.9 6.52986
33.94 6.46011
33.98 6.55307
34.02 6.38999
34.06 6.40361
34.1 6.30094
34.14 6.19399
34.18 6.18757
34.22 6.24191
34.26 6.37327
34.3 6.37638
34.34 6.38628
34.38 6.25841
34.42 6.23568
34.46 6.29281
34.5 6.31768
34.54 6.24417
34.58 6.29072
34.62 6.19135
34.66 6.11406
34.7 5.98569
34.74 5.98841
34.78 6.04995
34.82 6.12154
34.86 6.18298
34.9 6.21918
34.94 6.0901
34.98 6.11289
35.02 5.99284
35.06 6.00832
35.1 5.96336
35.14 5.9947
35.18 6.04643
35.22 6.02454
35.26 6.14677
35.3 6.16456
35.34 6.29622
35.38 6.11339
35.42 5.93281
35.46 5.93009
35.5 5.89821
35.54 5.9483
35.58 5.9501
35.62 6.02114
35.66 5.99092
35.7 5.92839
35.74 5.94254
35.78 6.03337
35.82 6.00911
35.86 6.06621
35.9 6.1971
35.94 6.35772
35.98 6.37055
36.02 6.41005
36.06 6.56849
36.1 6.6242
36.14 6.73581
36.18 6.74791
36.22 6.71962
36.26 6.58736
36.3 6.44758
36.34 6.48395
36.38 6.17443
36.42 5.99668
36.46 6.04164
36.5 6.00035
36.54 5.93828
36.58 5.68155
36.62 5.73024
36.66 5.81365
36.7 5.69637
36.74 5.55566
36.78 5.56564
36.82 5.61873
36.86 5.62232
36.9 5.6162
36.94 5.57481
36.98 5.487
37.02 5.494
37.06 5.51118
37.1 5.42358
37.14 5.40915
37.18 5.38919
37.22 5.43838
37.26 5.49796
37.3 5.49239
37.34 5.56171
37.38 5.52328
37.42 5.45289
37.46 5.5266
37.5 5.58173
37.54 5.36243
37.58 5.30342
37.62 5.29024
37.66 5.39373
37.7 5.30997
37.74 5.48294
37.78 5.40994
37.82 5.34227
37.86 5.28418
37.9 5.34429
37.94 5.29122
37.98 5.31507
38.02 5.36477
38.06 5.32585
38.1 5.23451
38.14 5.24862
38.18 5.30411
38.22 5.3159
38.26 5.28771
38.3 5.30755
38.34 5.3109
38.38 5.24533
38.42 5.25428
38.46 5.27725
38.5 5.29145
38.54 5.31778
38.58 5.16311
38.62 5.07288
38.66 5.19227
38.7 5.17897
38.74 5.08203
38.78 5.15575
38.82 5.20044
38.86 5.23525
38.9 5.19821
38.94 5.17725
38.98 5.17014
39.02 5.18677
39.06 5.18658
39.1 5.13485
39.14 5.1244
39.18 5.19302
39.22 5.15706
39.26 5.21282
39.3 5.01198
39.34 5.16434
39.38 5.06077
39.42 5.12807
39.46 5.26025
39.5 5.1436
39.54 5.21508
39.58 5.13258
39.62 5.06965
39.66 5.1658
39.7 5.21998
39.74 5.26372
39.78 5.28203
39.82 5.19175
39.86 5.20943
39.9 5.2161
39.94 5.40341
39.98 5.28759
40.02 5.27962
40.06 5.32547
40.1 5.27922
40.14 5.00113
40.18 5.02525
40.22 5.13599
40.26 5.08148
40.3 5.19836
40.34 5.12565
40.38 5.08191
40.42 5.03435
40.46 5.09186
40.5 5.29214
40.54 5.17442
40.58 5.12515
40.62 5.13654
40.66 5.17484
40.7 5.23517
40.74 5.25792
40.78 5.12551
40.82 5.11611
40.86 5.19556
40.9 5.0808
40.94 5.17135
40.98 5.02507
41.02 5.18544
41.06 5.23778
41.1 5.13953
41.14 5.08417
41.18 5.09926
41.22 5.172
41.26 5.23915
41.3 5.36884
41.34 5.24755
41.38 5.22393
41.42 5.33855
41.46 5.28666
41.5 5.25616
41.54 5.36408
41.58 5.65811
41.62 5.78125
41.66 5.80421
41.7 5.87011
41.74 5.96107
41.78 6.24199
41.82 6.21081
41.86 6.33112
41.9 6.51922
41.94 6.83127
41.98 6.72908
42.02 6.66283
42.06 6.60994
42.1 6.56974
42.14 6.30858
42.18 6.08665
42.22 5.98547
42.26 5.86784
42.3 5.65904
42.34 5.4463
42.38 5.40574
42.42 5.36123
42.46 5.22672
42.5 5.19418
42.54 5.16157
42.58 5.14315
42.62 5.27407
42.66 5.2671
42.7 5.28363
42.74 5.18824
42.78 5.18474
42.82 5.09304
42.86 5.16212
42.9 5.08164
42.94 5.07788
42.98 5.09063
43.02 5.12693
43.06 5.06661
43.1 5.03635
43.14 5.00045
43.18 5.05229
43.22 5.06966
43.26 5.12595
43.3 5.14228
43.34 5.21067
43.38 5.1161
43.42 4.93653
43.46 5.07612
43.5 5.00333
43.54 5.06735
43.58 5.12345
43.62 5.15983
43.66 5.02623
43.7 4.97204
43.74 5.02682
43.78 4.99098
43.82 5.1497
43.86 5.16471
43.9 4.97183
43.94 5.00978
43.98 5.04314
44.02 5.08197
44.06 5.13619
44.1 5.06775
44.14 5.0974
44.18 5.17368
44.22 5.14722
44.26 5.15997
44.3 5.21201
44.34 5.32877
44.38 5.44865
44.42 5.41943
44.46 5.63671
44.5 5.71562
44.54 6.04304
44.58 6.06138
44.62 5.89171
44.66 5.79089
44.7 5.84949
44.74 5.82561
44.78 5.72451
44.82 5.70813
44.86 5.54886
44.9 5.37422
44.94 5.27886
44.98 5.28409
45.02 5.17366
45.06 5.07369
45.1 5.02477
45.14 5.01193
45.18 4.99094
45.22 4.92477
45.26 5.04781
45.3 5.0382
45.34 4.77892
45.38 4.9853
45.42 5.03444
45.46 5.06747
45.5 5.06544
45.54 5.05378
45.58 4.94251
45.62 4.89373
45.66 4.95508
45.7 4.89244
45.74 4.96569
45.78 4.90193
45.82 4.91923
45.86 4.99765
45.9 4.89296
45.94 4.90888
45.98 4.96746
46.02 4.96712
46.06 4.99182
46.1 4.90895
46.14 4.8745
46.18 4.9688
46.22 4.91978
46.26 4.76962
46.3 4.84241
46.34 4.95368
46.38 4.66299
46.42 4.65259
46.46 4.77541
46.5 4.93953
46.54 5.01401
46.58 4.88368
46.62 4.86326
46.66 4.92852
46.7 4.92077
46.74 4.95935
46.78 4.85553
46.82 4.71025
46.86 4.86046
46.9 4.94245
46.94 4.92896
46.98 4.89159
47.02 4.97293
47.06 5.00604
47.1 5.03241
47.14 4.9884
47.18 4.89496
47.22 4.80255
47.26 4.81684
47.3 5.04104
47.34 5.00071
47.38 4.91568
47.42 4.84283
47.46 4.8127
47.5 4.79339
47.54 4.82962
47.58 4.91679
47.62 4.78671
47.66 4.80279
47.7 4.69261
47.74 4.6959
47.78 4.79872
47.82 4.86689
47.86 4.72328
47.9 4.73674
47.94 4.85292
47.98 4.71245
48.02 4.69101
48.06 4.71762
48.1 4.77584
48.14 4.68617
48.18 4.81019
48.22 4.78899
48.26 4.73465
48.3 4.70442
48.34 4.67824
48.38 4.66951
48.42 4.62393
48.46 4.63063
48.5 4.7466
48.54 4.77244
48.58 4.77681
48.62 4.73617
48.66 4.8064
48.7 4.78771
48.74 4.72544
48.78 4.74406
48.82 4.65292
48.86 4.59264
48.9 4.57588
48.94 4.68734
48.98 4.59635
49.02 4.57746
49.06 4.63843
49.1 4.65486
49.14 4.5598
49.18 4.63069
49.22 4.65255
49.26 4.60866
49.3 4.71642
49.34 4.63245
49.38 4.63607
49.42 4.79143
49.46 4.69642
49.5 4.71738
49.54 4.65372
49.58 4.73117
49.62 4.58079
49.66 4.62965
49.7 4.60072
49.74 4.64705
49.78 4.59704
49.82 4.54526
49.86 4.55084
49.9 4.60022
49.94 4.56544
49.98 4.56091
50.02 4.64069
50.06 4.58147
50.1 4.52972
50.14 4.66377
50.18 4.62337
50.22 4.50086
50.26 4.42964
50.3 4.59912
50.34 4.54459
50.38 4.59501
50.42 4.63657
50.46 4.62677
50.5 4.57432
50.54 4.74735
50.58 4.74722
50.62 4.6057
50.66 4.52227
50.7 4.45107
50.74 4.52396
50.78 4.58826
50.82 4.44204
50.86 4.63969
50.9 4.61053
50.94 4.48236
50.98 4.56239
51.02 4.64157
51.06 4.48539
51.1 4.37575
51.14 4.48022
51.18 4.48539
51.22 4.46441
51.26 4.39204
51.3 4.37425
51.34 4.46122
51.38 4.53273
51.42 4.47146
51.46 4.49893
51.5 4.54218
51.54 4.56617
51.58 4.67603
51.62 4.65747
51.66 4.75903
51.7 4.73977
51.74 4.79756
51.78 4.73963
51.82 4.85542
51.86 4.78033
51.9 4.70946
51.94 4.82162
51.98 4.91384
52.02 4.91914
52.06 4.75301
52.1 4.67918
52.14 4.60926
52.18 4.68077
52.22 4.66477
52.26 4.51328
52.3 4.48761
52.34 4.55067
52.38 4.42649
52.42 4.50554
52.46 4.51457
52.5 4.40714
52.54 4.45224
52.58 4.40788
52.62 4.53061
52.66 4.56296
52.7 4.65593
52.74 4.60974
52.78 4.46963
52.82 4.47047
52.86 4.44312
52.9 4.49332
52.94 4.49374
52.98 4.46215
53.02 4.40072
53.06 4.52996
53.1 4.58818
53.14 4.52692
53.18 4.61663
53.22 4.4774
53.26 4.37044
53.3 4.41084
53.34 4.42735
53.38 4.50673
53.42 4.40278
53.46 4.37584
53.5 4.42351
53.54 4.60113
53.58 4.59458
53.62 4.47457
53.66 4.44825
53.7 4.47131
53.74 4.38786
53.78 4.45594
53.82 4.40217
53.86 4.48853
53.9 4.59855
53.94 4.532
53.98 4.46247
54.02 4.56837
54.06 4.50144
54.1 4.4792
54.14 4.57408
54.18 4.53801
54.22 4.51351
54.26 4.54576
54.3 4.53309
54.34 4.49851
54.38 4.58487
54.42 4.62134
54.46 4.54615
54.5 4.52867
54.54 4.49244
54.58 4.48843
54.62 4.41506
54.66 4.48409
54.7 4.49721
54.74 4.44946
54.78 4.39136
54.82 4.52647
54.86 4.44488
54.9 4.3706
54.94 4.5904
54.98 4.64956
55.02 4.48367
55.06 4.33639
55.1 4.50825
55.14 4.42526
55.18 4.46468
55.22 4.44018
55.26 4.49886
55.3 4.56486
55.34 4.25191
55.38 4.34217
55.42 4.48706
55.46 4.52253
55.5 4.7191
55.54 4.89257
55.58 4.8165
55.62 4.81878
55.66 4.76529
55.7 4.61736
55.74 4.63003
55.78 4.69563
55.82 4.71866
55.86 4.50945
55.9 4.72877
55.94 4.72932
55.98 4.73527
56.02 4.78422
56.06 4.60402
56.1 4.78534
56.14 5.03732
56.18 4.89766
56.22 5.00699
56.26 4.83791
56.3 4.86609
56.34 5.06849
56.38 5.22507
56.42 5.17413
56.46 4.93004
56.5 5.43116
56.54 5.28707
56.58 5.44006
56.62 5.92607
56.66 5.84358
56.7 5.18757
56.74 5.41615
56.78 5.69186
56.82 5.91962
56.86 5.58493
56.9 4.72886