File: data/XRD_data/2018_8-7XRD/2018_8-7 FAGACs_3p75PEAI001_exported.xy
'Id: "" Comment: "Integrate frame 2018_8-7 FAGACs_3p75PEAI001.gfrmwith cursor Full Frame Cursor #7" Operator: "MAF user" Anode: "Cu" Scantype: "TwoTheta" TimePerStep: "90"
10.74 6.51646
10.78 6.40405
10.82 6.25836
10.86 5.96951
10.9 5.28859
10.94 5.04253
10.98 5.4331
11.02 4.96671
11.06 4.82397
11.1 5.11774
11.14 4.81598
11.18 4.65244
11.22 4.74475
11.26 4.87095
11.3 4.75427
11.34 5.03077
11.38 4.85882
11.42 4.96339
11.46 4.89244
11.5 4.88757
11.54 4.63745
11.58 4.68711
11.62 4.8357
11.66 4.77825
11.7 4.95093
11.74 4.90638
11.78 4.65584
11.82 4.87864
11.86 4.94618
11.9 4.87093
11.94 4.91189
11.98 4.94827
12.02 5.04183
12.06 5.00239
12.1 4.95894
12.14 4.71943
12.18 4.67561
12.22 4.81652
12.26 4.81484
12.3 4.85869
12.34 4.93486
12.38 4.82408
12.42 4.7523
12.46 4.68977
12.5 4.82796
12.54 4.94658
12.58 5.01558
12.62 4.83383
12.66 4.9844
12.7 5.05658
12.74 5.00058
12.78 4.85376
12.82 4.84113
12.86 4.92326
12.9 5.05759
12.94 4.89066
12.98 4.74841
13.02 4.89255
13.06 4.95549
13.1 4.95381
13.14 5.0933
13.18 5.00547
13.22 5.03194
13.26 5.06373
13.3 5.01849
13.34 5.0111
13.38 4.97285
13.42 4.95938
13.46 5.08024
13.5 5.16282
13.54 5.062
13.58 4.96994
13.62 5.09928
13.66 5.08116
13.7 5.21178
13.74 5.21021
13.78 5.26197
13.82 5.20655
13.86 5.14537
13.9 5.31277
13.94 5.45371
13.98 5.46861
14.02 5.55463
14.06 5.60242
14.1 5.6842
14.14 5.68613
14.18 5.70793
14.22 5.95781
14.26 5.98115
14.3 6.02531
14.34 6.23988
14.38 6.38631
14.42 6.55607
14.46 6.94674
14.5 7.35233
14.54 7.79701
14.58 8.28542
14.62 8.70247
14.66 9.60761
14.7 10.5416
14.74 11.2139
14.78 11.463
14.82 11.3255
14.86 11.079
14.9 10.3781
14.94 9.49011
14.98 8.58608
15.02 7.72539
15.06 7.28269
15.1 6.71897
15.14 6.14369
15.18 5.97739
15.22 5.73103
15.26 5.52743
15.3 5.4906
15.34 5.42571
15.38 5.36279
15.42 5.19715
15.46 5.15955
15.5 5.17348
15.54 5.189
15.58 5.15372
15.62 5.048
15.66 5.15396
15.7 5.00655
15.74 4.98251
15.78 4.91414
15.82 5.02639
15.86 5.07955
15.9 4.99319
15.94 4.95821
15.98 5.05069
16.02 5.08164
16.06 5.0289
16.1 5.04852
16.14 5.11829
16.18 5.19178
16.22 5.08685
16.26 5.05518
16.3 5.0475
16.34 5.00965
16.38 4.99688
16.42 5.05388
16.46 5.00845
16.5 5.1093
16.54 5.06348
16.58 5.11745
16.62 5.1774
16.66 5.09369
16.7 5.01849
16.74 5.16906
16.78 5.17182
16.82 5.1272
16.86 5.18974
16.9 5.1393
16.94 5.10606
16.98 5.16947
17.02 5.12727
17.06 5.02258
17.1 5.12518
17.14 5.15373
17.18 5.1233
17.22 5.08013
17.26 5.08423
17.3 5.11324
17.34 5.20366
17.38 5.27578
17.42 5.17897
17.46 5.1695
17.5 5.05714
17.54 5.079
17.58 5.02912
17.62 5.23703
17.66 5.27292
17.7 5.23846
17.74 5.27245
17.78 5.33704
17.82 5.28677
17.86 5.32283
17.9 5.31853
17.94 5.23995
17.98 5.27711
18.02 5.24201
18.06 5.16546
18.1 5.25784
18.14 5.32847
18.18 5.38779
18.22 5.3713
18.26 5.27972
18.3 5.37539
18.34 5.35291
18.38 5.37047
18.42 5.40766
18.46 5.39891
18.5 5.33406
18.54 5.41079
18.58 5.51837
18.62 5.47342
18.66 5.44397
18.7 5.52037
18.74 5.59846
18.78 5.63556
18.82 5.55908
18.86 5.56563
18.9 5.61857
18.94 5.50481
18.98 5.47036
19.02 5.56005
19.06 5.61122
19.1 5.66563
19.14 5.69589
19.18 5.75689
19.22 5.74741
19.26 5.64209
19.3 5.71175
19.34 5.75622
19.38 5.80768
19.42 5.79168
19.46 5.79547
19.5 5.81548
19.54 5.80914
19.58 5.88477
19.62 6.0128
19.66 5.96638
19.7 5.91807
19.74 5.9279
19.78 5.93647
19.82 5.83259
19.86 5.98313
19.9 5.96465
19.94 6.0315
19.98 6.07486
20.02 5.96213
20.06 6.06386
20.1 6.20001
20.14 6.18731
20.18 6.17774
20.22 6.22196
20.26 6.24535
20.3 6.24653
20.34 6.33348
20.38 6.3572
20.42 6.3606
20.46 6.42695
20.5 6.43335
20.54 6.52116
20.58 6.60661
20.62 6.73419
20.66 6.97654
20.7 7.20305
20.74 7.36419
20.78 7.67552
20.82 8.07
20.86 8.39117
20.9 8.64152
20.94 8.9353
20.98 9.01362
21.02 8.97899
21.06 8.82852
21.1 8.5783
21.14 8.19794
21.18 7.84268
21.22 7.63635
21.26 7.41948
21.3 7.24759
21.34 7.03199
21.38 6.87952
21.42 6.94215
21.46 6.85005
21.5 6.8883
21.54 6.89129
21.58 6.89012
21.62 6.87839
21.66 6.83718
21.7 6.75126
21.74 6.78047
21.78 6.80219
21.82 6.86273
21.86 6.78803
21.9 6.84102
21.94 6.86548
21.98 6.8054
22.02 6.95849
22.06 6.83259
22.1 6.8311
22.14 7.00537
22.18 7.06855
22.22 6.95617
22.26 6.89775
22.3 7.00203
22.34 7.02953
22.38 7.0144
22.42 7.12206
22.46 7.15085
22.5 7.22382
22.54 7.17714
22.58 7.20752
22.62 7.26866
22.66 7.23529
22.7 7.18325
22.74 7.17661
22.78 7.21941
22.82 7.16034
22.86 7.16159
22.9 7.3039
22.94 7.35712
22.98 7.14054
23.02 7.0847
23.06 7.13572
23.1 7.22519
23.14 7.27533
23.18 7.2804
23.22 7.43046
23.26 7.3316
23.3 7.30393
23.34 7.4214
23.38 7.46352
23.42 7.41431
23.46 7.46894
23.5 7.4755
23.54 7.5186
23.58 7.43053
23.62 7.46945
23.66 7.4346
23.7 7.40386
23.74 7.4199
23.78 7.40902
23.82 7.46854
23.86 7.43547
23.9 7.33218
23.94 7.44662
23.98 7.55148
24.02 7.50864
24.06 7.55143
24.1 7.54832
24.14 7.38166
24.18 7.46037
24.22 7.52885
24.26 7.49189
24.3 7.43002
24.34 7.53287
24.38 7.56093
24.42 7.53839
24.46 7.55017
24.5 7.46854
24.54 7.56877
24.58 7.48129
24.62 7.43532
24.66 7.65731
24.7 7.60759
24.74 7.43996
24.78 7.43766
24.82 7.50585
24.86 7.68562
24.9 7.5908
24.94 7.60733
24.98 7.64631
25.02 7.71521
25.06 7.66384
25.1 7.57623
25.14 7.72498
25.18 7.74781
25.22 7.89825
25.26 7.86545
25.3 7.87778
25.34 8.15413
25.38 8.10209
25.42 8.21143
25.46 8.15066
25.5 8.19908
25.54 8.26227
25.58 8.24202
25.62 8.22297
25.66 8.02
25.7 8.041
25.74 7.94806
25.78 7.74125
25.82 7.74164
25.86 7.80873
25.9 7.64514
25.94 7.60359
25.98 7.64587
26.02 7.70455
26.06 7.69005
26.1 7.66568
26.14 7.64106
26.18 7.70668
26.22 7.67621
26.26 7.57764
26.3 7.59598
26.34 7.61191
26.38 7.6657
26.42 7.51258
26.46 7.60966
26.5 7.54377
26.54 7.52132
26.58 7.63507
26.62 7.55667
26.66 7.61861
26.7 7.72874
26.74 7.64256
26.78 7.60564
26.82 7.71507
26.86 7.78942
26.9 7.61581
26.94 7.65767
26.98 7.70804
27.02 7.69264
27.06 7.56272
27.1 7.51104
27.14 7.5507
27.18 7.53677
27.22 7.61683
27.26 7.64929
27.3 7.69473
27.34 7.70204
27.38 7.70918
27.42 7.73017
27.46 7.55601
27.5 7.71688
27.54 7.60465
27.58 7.60819
27.62 7.61655
27.66 7.71277
27.7 7.68188
27.74 7.46031
27.78 7.59063
27.82 7.58642
27.86 7.51534
27.9 7.50842
27.94 7.63435
27.98 7.84555
28.02 7.64131
28.06 7.72184
28.1 7.73103
28.14 7.70813
28.18 7.55561
28.22 7.68566
28.26 7.7866
28.3 7.80696
28.34 7.84738
28.38 7.72945
28.42 7.75224
28.46 7.80812
28.5 7.77047
28.54 7.95015
28.58 7.8921
28.62 7.92982
28.66 8.02122
28.7 7.99089
28.74 8.07396
28.78 8.08381
28.82 8.20366
28.86 8.27283
28.9 8.33107
28.94 8.31384
28.98 8.4089
29.02 8.60414
29.06 8.81293
29.1 8.98202
29.14 9.2229
29.18 9.48987
29.22 9.85264
29.26 10.2449
29.3 10.746
29.34 11.3559
29.38 11.667
29.42 12.0563
29.46 12.4495
29.5 12.4206
29.54 12.4403
29.58 12.3763
29.62 11.8391
29.66 11.2076
29.7 10.7442
29.74 10.0187
29.78 9.56884
29.82 9.09869
29.86 8.71828
29.9 8.33174
29.94 8.24303
29.98 7.9989
30.02 7.89568
30.06 7.8105
30.1 7.76484
30.14 7.66937
30.18 7.65247
30.22 7.61325
30.26 7.58256
30.3 7.60027
30.34 7.43154
30.38 7.53171
30.42 7.41631
30.46 7.49763
30.5 7.61025
30.54 7.63376
30.58 7.51148
30.62 7.349
30.66 7.24847
30.7 7.35963
30.74 7.34595
30.78 7.43739
30.82 7.20901
30.86 7.13911
30.9 7.26417
30.94 7.3244
30.98 7.19414
31.02 7.21759
31.06 7.31345
31.1 7.33286
31.14 7.21362
31.18 7.26088
31.22 7.22554
31.26 7.17053
31.3 7.06188
31.34 7.17367
31.38 7.12127
31.42 7.05112
31.46 7.12074
31.5 7.21829
31.54 7.24271
31.58 7.21593
31.62 7.19142
31.66 7.19152
31.7 7.10819
31.74 7.17055
31.78 7.17125
31.82 7.05921
31.86 7.02391
31.9 7.0365
31.94 7.13175
31.98 7.1421
32.02 7.01319
32.06 7.09593
32.1 7.09615
32.14 7.15214
32.18 7.22066
32.22 7.03425
32.26 7.13546
32.3 7.0419
32.34 7.14611
32.38 7.15832
32.42 7.14756
32.46 7.16448
32.5 7.27867
32.54 7.34628
32.58 7.36029
32.62 7.54038
32.66 7.45925
32.7 7.53779
32.74 7.75263
32.78 7.90377
32.82 8.24735
32.86 8.49668
32.9 8.5864
32.94 8.82596
32.98 9.04946
33.02 9.00187
33.06 8.95825
33.1 8.95812
33.14 8.82332
33.18 8.50073
33.22 8.2014
33.26 7.84101
33.3 7.59705
33.34 7.5386
33.38 7.206
33.42 7.12255
33.46 6.97179
33.5 6.88255
33.54 6.95952
33.58 6.77444
33.62 6.79673
33.66 6.73904
33.7 6.6465
33.74 6.61247
33.78 6.65876
33.82 6.60051
33.86 6.71117
33.9 6.5735
33.94 6.50698
33.98 6.50102
34.02 6.39265
34.06 6.36872
34.1 6.47795
34.14 6.46193
34.18 6.47227
34.22 6.32008
34.26 6.26112
34.3 6.2842
34.34 6.4258
34.38 6.34549
34.42 6.15559
34.46 6.19039
34.5 6.28338
34.54 6.31863
34.58 6.03984
34.62 6.13638
34.66 6.30885
34.7 6.32528
34.74 6.33153
34.78 6.11864
34.82 6.14634
34.86 6.06955
34.9 6.10392
34.94 6.09928
34.98 6.19966
35.02 6.21893
35.06 6.16124
35.1 6.11429
35.14 6.13717
35.18 6.17615
35.22 6.09329
35.26 6.05811
35.3 6.11351
35.34 6.13241
35.38 6.27791
35.42 6.19362
35.46 6.0549
35.5 6.00388
35.54 6.12257
35.58 6.04377
35.62 6.0638
35.66 6.08101
35.7 5.99703
35.74 6.00998
35.78 6.06511
35.82 6.22069
35.86 6.40552
35.9 6.51845
35.94 6.5173
35.98 6.54787
36.02 6.57545
36.06 6.56511
36.1 6.67002
36.14 6.70451
36.18 6.65773
36.22 6.63183
36.26 6.72255
36.3 6.49829
36.34 6.33647
36.38 6.20515
36.42 6.17369
36.46 6.02618
36.5 5.95818
36.54 5.92198
36.58 5.8687
36.62 5.75854
36.66 5.82081
36.7 5.76705
36.74 5.64217
36.78 5.78134
36.82 5.66056
36.86 5.58544
36.9 5.5591
36.94 5.69827
36.98 5.65235
37.02 5.51907
37.06 5.55191
37.1 5.64935
37.14 5.58832
37.18 5.64838
37.22 5.70578
37.26 5.51271
37.3 5.62853
37.34 5.69
37.38 5.66229
37.42 5.52122
37.46 5.37994
37.5 5.46225
37.54 5.31701
37.58 5.29731
37.62 5.49458
37.66 5.59587
37.7 5.5348
37.74 5.52548
37.78 5.36009
37.82 5.43411
37.86 5.40399
37.9 5.40342
37.94 5.40518
37.98 5.41576
38.02 5.48097
38.06 5.36796
38.1 5.27105
38.14 5.31028
38.18 5.32719
38.22 5.23873
38.26 5.2978
38.3 5.37273
38.34 5.34899
38.38 5.28138
38.42 5.38057
38.46 5.24611
38.5 5.29567
38.54 5.30777
38.58 5.26695
38.62 5.32418
38.66 5.3085
38.7 5.16019
38.74 5.16032
38.78 5.25003
38.82 5.11186
38.86 5.17241
38.9 5.19036
38.94 5.21893
38.98 5.17965
39.02 5.25384
39.06 5.22694
39.1 5.34913
39.14 5.26631
39.18 5.20784
39.22 5.11527
39.26 5.11287
39.3 5.23934
39.34 5.06915
39.38 5.11256
39.42 5.13201
39.46 5.06211
39.5 5.1428
39.54 5.12732
39.58 5.18704
39.62 5.07138
39.66 5.10758
39.7 5.30411
39.74 5.29663
39.78 5.23293
39.82 5.2783
39.86 5.3132
39.9 5.37406
39.94 5.30597
39.98 5.3584
40.02 5.34342
40.06 5.29781
40.1 5.22932
40.14 5.26185
40.18 5.27005
40.22 5.22809
40.26 5.18325
40.3 5.25987
40.34 5.1085
40.38 5.08998
40.42 5.09061
40.46 5.21754
40.5 5.26822
40.54 5.42142
40.58 5.30242
40.62 5.30585
40.66 5.22116
40.7 5.24361
40.74 5.22054
40.78 5.29626
40.82 5.18677
40.86 5.09636
40.9 5.11488
40.94 5.16795
40.98 5.26244
41.02 5.09214
41.06 5.22631
41.1 5.33095
41.14 5.20061
41.18 5.24505
41.22 5.28759
41.26 5.28549
41.3 5.38456
41.34 5.3144
41.38 5.38868
41.42 5.54965
41.46 5.51944
41.5 5.47445
41.54 5.61762
41.58 5.73415
41.62 5.77085
41.66 5.90639
41.7 6.00556
41.74 6.10099
41.78 6.28646
41.82 6.40263
41.86 6.48216
41.9 6.55802
41.94 6.68484
41.98 6.54834
42.02 6.54852
42.06 6.48371
42.1 6.48875
42.14 6.23626
42.18 6.10632
42.22 5.98751
42.26 5.87954
42.3 5.61525
42.34 5.67902
42.38 5.62943
42.42 5.3915
42.46 5.36377
42.5 5.19535
42.54 5.40566
42.58 5.34142
42.62 5.09816
42.66 5.19185
42.7 5.21253
42.74 5.24528
42.78 5.16166
42.82 4.98941
42.86 5.0522
42.9 5.10176
42.94 5.02469
42.98 5.05237
43.02 4.98298
43.06 5.15868
43.1 5.20971
43.14 5.12719
43.18 5.11925
43.22 5.14266
43.26 5.15053
43.3 5.05796
43.34 5.08296
43.38 4.95271
43.42 5.10791
43.46 5.11257
43.5 5.0895
43.54 5.17198
43.58 5.09504
43.62 5.16783
43.66 5.11018
43.7 5.10973
43.74 5.20577
43.78 5.08706
43.82 5.06721
43.86 5.04378
43.9 5.06332
43.94 5.06731
43.98 5.17115
44.02 5.16514
44.06 5.20779
44.1 5.12887
44.14 5.18146
44.18 5.20395
44.22 5.23542
44.26 5.28394
44.3 5.20719
44.34 5.43005
44.38 5.49118
44.42 5.54679
44.46 5.68833
44.5 5.79171
44.54 6.10333
44.58 6.05813
44.62 5.99159
44.66 5.91651
44.7 5.71447
44.74 5.57036
44.78 5.56418
44.82 5.50357
44.86 5.43722
44.9 5.40828
44.94 5.35999
44.98 5.18645
45.02 5.12506
45.06 5.12813
45.1 5.05898
45.14 4.95273
45.18 4.90388
45.22 4.8854
45.26 4.81904
45.3 4.88956
45.34 4.91671
45.38 5.01136
45.42 4.92328
45.46 4.88626
45.5 4.85793
45.54 4.75153
45.58 4.89785
45.62 4.91679
45.66 4.88205
45.7 4.90214
45.74 4.97631
45.78 4.95272
45.82 4.99519
45.86 4.86629
45.9 4.857
45.94 4.85161
45.98 4.82408
46.02 4.83171
46.06 4.83694
46.1 4.86991
46.14 4.8699
46.18 4.75205
46.22 4.73264
46.26 4.82468
46.3 4.79486
46.34 4.87156
46.38 4.78982
46.42 4.6802
46.46 4.78735
46.5 4.82173
46.54 4.73775
46.58 4.79288
46.62 4.82715
46.66 4.69713
46.7 4.90566
46.74 4.7712
46.78 4.72387
46.82 4.85497
46.86 4.90663
46.9 4.85892
46.94 4.74734
46.98 4.73072
47.02 4.87461
47.06 4.81502
47.1 4.91103
47.14 4.82552
47.18 4.79438
47.22 4.76186
47.26 4.75526
47.3 4.86043
47.34 4.86411
47.38 4.85022
47.42 4.7065
47.46 4.71919
47.5 4.72898
47.54 4.72336
47.58 4.66185
47.62 4.73774
47.66 4.80136
47.7 4.71426
47.74 4.70369
47.78 4.65587
47.82 4.65907
47.86 4.56048
47.9 4.63404
47.94 4.64454
47.98 4.63374
48.02 4.44794
48.06 4.56844
48.1 4.68667
48.14 4.71157
48.18 4.65657
48.22 4.63575
48.26 4.53525
48.3 4.66983
48.34 4.70326
48.38 4.63926
48.42 4.59647
48.46 4.55803
48.5 4.65276
48.54 4.55935
48.58 4.66717
48.62 4.71908
48.66 4.61887
48.7 4.67034
48.74 4.57721
48.78 4.56933
48.82 4.58001
48.86 4.49669
48.9 4.55529
48.94 4.53194
48.98 4.55999
49.02 4.7179
49.06 4.73529
49.1 4.59141
49.14 4.48916
49.18 4.4736
49.22 4.56913
49.26 4.62663
49.3 4.50732
49.34 4.65391
49.38 4.56574
49.42 4.63469
49.46 4.65511
49.5 4.5717
49.54 4.48615
49.58 4.63911
49.62 4.65399
49.66 4.6137
49.7 4.48399
49.74 4.46767
49.78 4.57997
49.82 4.62794
49.86 4.61339
49.9 4.583
49.94 4.5003
49.98 4.4856
50.02 4.70327
50.06 4.62458
50.1 4.53083
50.14 4.51547
50.18 4.47977
50.22 4.55453
50.26 4.47451
50.3 4.45183
50.34 4.37204
50.38 4.44137
50.42 4.43688
50.46 4.50342
50.5 4.44684
50.54 4.3889
50.58 4.50522
50.62 4.54039
50.66 4.59344
50.7 4.5368
50.74 4.54529
50.78 4.5897
50.82 4.64616
50.86 4.52206
50.9 4.49482
50.94 4.40088
50.98 4.43566
51.02 4.43287
51.06 4.47302
51.1 4.47029
51.14 4.48165
51.18 4.52824
51.22 4.37884
51.26 4.56358
51.3 4.52567
51.34 4.50529
51.38 4.58384
51.42 4.59375
51.46 4.66965
51.5 4.61921
51.54 4.45839
51.58 4.58903
51.62 4.69998
51.66 4.71021
51.7 4.76912
51.74 4.77941
51.78 4.7402
51.82 4.83033
51.86 4.75369
51.9 4.61736
51.94 4.58208
51.98 4.61326
52.02 4.61966
52.06 4.50831
52.1 4.56341
52.14 4.64028
52.18 4.6101
52.22 4.5594
52.26 4.45403
52.3 4.42535
52.34 4.50492
52.38 4.44563
52.42 4.32793
52.46 4.37119
52.5 4.46327
52.54 4.44968
52.58 4.44053
52.62 4.45738
52.66 4.46291
52.7 4.46248
52.74 4.54564
52.78 4.52849
52.82 4.41822
52.86 4.43838
52.9 4.5014
52.94 4.40248
52.98 4.31673
53.02 4.38874
53.06 4.43713
53.1 4.39363
53.14 4.46321
53.18 4.38384
53.22 4.45675
53.26 4.49968
53.3 4.47292
53.34 4.51423
53.38 4.4067
53.42 4.34467
53.46 4.2584
53.5 4.53928
53.54 4.71154
53.58 4.39524
53.62 4.34971
53.66 4.421
53.7 4.37697
53.74 4.38178
53.78 4.4431
53.82 4.4275
53.86 4.47642
53.9 4.40464
53.94 4.46113
53.98 4.35177
54.02 4.44515
54.06 4.4987
54.1 4.5429
54.14 4.5244
54.18 4.38841
54.22 4.42168
54.26 4.37056
54.3 4.35315
54.34 4.36402
54.38 4.36369
54.42 4.39723
54.46 4.52958
54.5 4.3859
54.54 4.42374
54.58 4.44894
54.62 4.50854
54.66 4.42515
54.7 4.44437
54.74 4.50587
54.78 4.39209
54.82 4.42763
54.86 4.42284
54.9 4.26295
54.94 4.35382
54.98 4.36741
55.02 4.29697
55.06 4.27328
55.1 4.3351
55.14 4.36175
55.18 4.35026
55.22 4.46229
55.26 4.48475
55.3 4.42258
55.34 4.43943
55.38 4.55672
55.42 4.51271
55.46 4.54635
55.5 4.59556
55.54 4.71161
55.58 4.76931
55.62 4.63641
55.66 4.69325
55.7 4.57706
55.74 4.63455
55.78 4.56655
55.82 4.43385
55.86 4.50046
55.9 4.59477
55.94 4.6456
55.98 4.72284
56.02 4.54331
56.06 4.67817
56.1 4.70243
56.14 4.65297
56.18 4.70237
56.22 4.9202
56.26 4.90082
56.3 4.80074
56.34 4.88716
56.38 5.14253
56.42 5.34459
56.46 5.55746
56.5 5.28566
56.54 4.80907
56.58 5.11175
56.62 5.19931
56.66 5.09755
56.7 5.39076
56.74 5.53495
56.78 5.50557
56.82 5.36534
56.86 6.28394
56.9 6.15943