File: data/XRD_data/2018_8-7XRD/2018_8-7 FAGACs_5PEAI001_exported.xy
'Id: "" Comment: "Integrate frame 2018_8-7 FAGACs_5PEAI001.gfrmwith cursor Full Frame Cursor #8" Operator: "MAF user" Anode: "Cu" Scantype: "TwoTheta" TimePerStep: "90"
10.74 5.97955
10.78 6.15418
10.82 6.15875
10.86 5.72952
10.9 5.39479
10.94 5.0785
10.98 5.00847
11.02 4.9478
11.06 4.92031
11.1 4.83883
11.14 4.73585
11.18 4.85192
11.22 4.84261
11.26 4.91093
11.3 4.95043
11.34 4.92581
11.38 4.98612
11.42 4.92011
11.46 4.80478
11.5 4.84434
11.54 4.79701
11.58 4.77691
11.62 4.72598
11.66 4.92691
11.7 4.82925
11.74 4.71173
11.78 4.77923
11.82 4.90908
11.86 4.92027
11.9 4.8638
11.94 4.87106
11.98 4.86906
12.02 4.70293
12.06 4.81949
12.1 4.86691
12.14 4.88981
12.18 4.74718
12.22 4.86819
12.26 4.78078
12.3 4.73596
12.34 4.74237
12.38 4.66171
12.42 4.66771
12.46 4.72317
12.5 4.73308
12.54 4.70697
12.58 4.5829
12.62 4.77441
12.66 4.8895
12.7 4.854
12.74 4.8114
12.78 4.81963
12.82 4.84225
12.86 4.77033
12.9 4.87674
12.94 4.76154
12.98 4.6824
13.02 4.72265
13.06 4.71263
13.1 4.81716
13.14 4.91327
13.18 4.88466
13.22 4.86479
13.26 4.94075
13.3 4.93414
13.34 4.99059
13.38 4.93243
13.42 5.009
13.46 4.89911
13.5 5.03996
13.54 5.20443
13.58 5.44914
13.62 5.58361
13.66 5.38949
13.7 5.04572
13.74 4.92564
13.78 4.98548
13.82 5.00096
13.86 5.05472
13.9 5.0936
13.94 5.12758
13.98 5.26972
14.02 5.27914
14.06 5.2127
14.1 5.43729
14.14 5.47456
14.18 5.51817
14.22 5.67688
14.26 5.86145
14.3 6.24607
14.34 6.82435
14.38 7.27156
14.42 8.70063
14.46 12.143
14.5 14.4491
14.54 24.2192
14.58 47.9168
14.62 66.287
14.66 134.408
14.7 158.313
14.74 150.951
14.78 78.1246
14.82 31.5433
14.86 16.3416
14.9 7.88414
14.94 6.62578
14.98 6.21252
15.02 5.78092
15.06 5.64399
15.1 5.5514
15.14 5.43399
15.18 5.38934
15.22 5.37633
15.26 5.24541
15.3 5.16913
15.34 5.10836
15.38 5.10155
15.42 5.0098
15.46 4.92515
15.5 4.96948
15.54 4.98116
15.58 4.89686
15.62 4.84303
15.66 4.98504
15.7 4.93135
15.74 4.94372
15.78 4.98338
15.82 4.97265
15.86 4.94337
15.9 4.88453
15.94 4.94442
15.98 4.93754
16.02 4.92563
16.06 4.93869
16.1 4.93061
16.14 4.94076
16.18 4.96684
16.22 5.10925
16.26 5.06073
16.3 4.938
16.34 5.0319
16.38 5.09471
16.42 5.04241
16.46 5.04379
16.5 5.02927
16.54 5.03179
16.58 5.08938
16.62 5.08294
16.66 5.03217
16.7 4.96613
16.74 5.09534
16.78 5.07425
16.82 4.96963
16.86 5.17125
16.9 5.1477
16.94 5.0128
16.98 5.03288
17.02 5.02606
17.06 5.04215
17.1 5.09913
17.14 5.10823
17.18 5.14926
17.22 5.04626
17.26 5.0867
17.3 5.02893
17.34 5.07053
17.38 5.05879
17.42 5.08865
17.46 5.0803
17.5 5.09706
17.54 5.18669
17.58 5.24777
17.62 5.23421
17.66 5.15804
17.7 5.28726
17.74 5.34614
17.78 5.36769
17.82 5.40471
17.86 5.40001
17.9 5.32922
17.94 5.33949
17.98 5.3137
18.02 5.34414
18.06 5.38644
18.1 5.37022
18.14 5.32131
18.18 5.41689
18.22 5.44675
18.26 5.39482
18.3 5.46796
18.34 5.4565
18.38 5.55311
18.42 5.50333
18.46 5.65724
18.5 5.68613
18.54 5.70644
18.58 5.51394
18.62 5.39022
18.66 5.46347
18.7 5.52098
18.74 5.53972
18.78 5.60099
18.82 5.57181
18.86 5.55591
18.9 5.58967
18.94 5.60205
18.98 5.5217
19.02 5.65432
19.06 5.71911
19.1 5.76232
19.14 5.76203
19.18 5.61861
19.22 5.65416
19.26 5.68423
19.3 5.79186
19.34 5.69482
19.38 5.78901
19.42 5.77257
19.46 5.8259
19.5 5.85336
19.54 5.87823
19.58 5.87982
19.62 5.95553
19.66 5.97344
19.7 5.94099
19.74 5.96213
19.78 5.90013
19.82 5.949
19.86 5.99593
19.9 6.0469
19.94 6.00417
19.98 5.99657
20.02 5.99506
20.06 6.04425
20.1 6.10319
20.14 6.16323
20.18 6.16712
20.22 6.12698
20.26 6.21268
20.3 6.22099
20.34 6.17425
20.38 6.25484
20.42 6.29707
20.46 6.30314
20.5 6.30629
20.54 6.34235
20.58 6.64677
20.62 6.78419
20.66 6.91956
20.7 7.53504
20.74 8.23529
20.78 8.71111
20.82 8.85041
20.86 8.69911
20.9 8.22772
20.94 7.55709
20.98 7.14523
21.02 6.75171
21.06 6.58338
21.1 6.45546
21.14 6.58338
21.18 6.43604
21.22 6.46934
21.26 6.51366
21.3 6.62188
21.34 6.74229
21.38 6.58651
21.42 6.6136
21.46 6.65692
21.5 6.63833
21.54 6.77786
21.58 6.78709
21.62 6.76425
21.66 6.76466
21.7 6.85029
21.74 6.82635
21.78 6.80547
21.82 6.91012
21.86 7.00004
21.9 6.89405
21.94 6.82049
21.98 6.81512
22.02 6.84473
22.06 6.89883
22.1 6.7473
22.14 6.98201
22.18 6.93951
22.22 6.9583
22.26 7.00339
22.3 6.98419
22.34 7.04457
22.38 7.15113
22.42 7.07825
22.46 7.33726
22.5 7.47676
22.54 7.61153
22.58 7.5996
22.62 7.41787
22.66 7.33413
22.7 7.37056
22.74 7.373
22.78 7.28564
22.82 7.22579
22.86 7.16369
22.9 7.19881
22.94 7.26509
22.98 7.31934
23.02 7.38305
23.06 7.3383
23.1 7.15255
23.14 7.16651
23.18 7.13969
23.22 7.32143
23.26 7.33972
23.3 7.42891
23.34 7.42494
23.38 7.39665
23.42 7.45175
23.46 7.47897
23.5 7.47606
23.54 7.43141
23.58 7.51729
23.62 7.61067
23.66 7.42212
23.7 7.4009
23.74 7.38591
23.78 7.36356
23.82 7.33786
23.86 7.20939
23.9 7.29388
23.94 7.25432
23.98 7.29321
24.02 7.39941
24.06 7.34491
24.1 7.39152
24.14 7.35994
24.18 7.34234
24.22 7.31953
24.26 7.23611
24.3 7.40307
24.34 7.37553
24.38 7.31007
24.42 7.32869
24.46 7.33192
24.5 7.24702
24.54 7.39558
24.58 7.41218
24.62 7.36394
24.66 7.35495
24.7 7.35543
24.74 7.36422
24.78 7.35004
24.82 7.3639
24.86 7.41528
24.9 7.40912
24.94 7.47197
24.98 7.35626
25.02 7.30022
25.06 7.34645
25.1 7.42629
25.14 7.43588
25.18 7.47635
25.22 7.58241
25.26 7.50971
25.3 7.74934
25.34 7.67038
25.38 7.66791
25.42 7.60028
25.46 7.46314
25.5 7.4046
25.54 7.46927
25.58 7.42575
25.62 7.3506
25.66 7.43664
25.7 7.39422
25.74 7.26313
25.78 7.27422
25.82 7.2673
25.86 7.4145
25.9 7.6372
25.94 7.56806
25.98 7.44695
26.02 7.46788
26.06 7.54173
26.1 7.55084
26.14 7.45732
26.18 7.45419
26.22 7.56082
26.26 7.45824
26.3 7.44841
26.34 7.52023
26.38 7.5492
26.42 7.46782
26.46 7.43432
26.5 7.56456
26.54 7.59806
26.58 7.44497
26.62 7.36021
26.66 7.34815
26.7 7.39119
26.74 7.52207
26.78 7.47904
26.82 7.45165
26.86 7.6275
26.9 7.75273
26.94 7.7232
26.98 7.79297
27.02 8.01533
27.06 8.19779
27.1 8.384
27.14 8.6219
27.18 8.7802
27.22 8.78803
27.26 8.66974
27.3 8.36848
27.34 8.13831
27.38 8.01255
27.42 7.76111
27.46 7.56898
27.5 7.52704
27.54 7.58711
27.58 7.58677
27.62 7.58281
27.66 7.62611
27.7 7.70696
27.74 7.70604
27.78 7.66753
27.82 7.68982
27.86 8.18356
27.9 8.34189
27.94 8.28813
27.98 8.15885
28.02 8.01609
28.06 7.99971
28.1 7.89895
28.14 7.77702
28.18 7.78725
28.22 8.1134
28.26 8.05636
28.3 8.07477
28.34 8.27778
28.38 8.2686
28.42 8.1873
28.46 8.09639
28.5 8.25757
28.54 8.21965
28.58 8.25494
28.62 8.49983
28.66 8.57273
28.7 8.9398
28.74 9.28835
28.78 9.5681
28.82 10.3284
28.86 11.2868
28.9 12.0885
28.94 13.816
28.98 15.4302
29.02 16.8639
29.06 20.6564
29.1 25.519
29.14 31.9809
29.18 47.034
29.22 63.6071
29.26 83.0353
29.3 104.05
29.34 103.998
29.38 94.8898
29.42 65.8531
29.46 48.3388
29.5 28.581
29.54 15.5406
29.58 12.1869
29.62 9.73129
29.66 8.87107
29.7 8.58963
29.74 8.33234
29.78 8.19682
29.82 8.09847
29.86 8.03757
29.9 7.96095
29.94 7.9009
29.98 7.86781
30.02 7.71371
30.06 7.70239
30.1 7.67948
30.14 7.50369
30.18 7.66599
30.22 7.59082
30.26 7.50573
30.3 7.41718
30.34 7.55537
30.38 7.52865
30.42 7.55285
30.46 7.59301
30.5 7.52649
30.54 7.45938
30.58 7.4757
30.62 7.4059
30.66 7.32883
30.7 7.2439
30.74 7.28178
30.78 7.25053
30.82 7.34871
30.86 7.14175
30.9 7.12406
30.94 7.15868
30.98 7.21502
31.02 7.16919
31.06 7.1737
31.1 7.11664
31.14 7.21076
31.18 7.15358
31.22 7.18725
31.26 7.20797
31.3 7.1734
31.34 7.07611
31.38 7.09312
31.42 7.03377
31.46 6.98672
31.5 6.97138
31.54 7.00289
31.58 7.0994
31.62 7.08138
31.66 7.08514
31.7 7.15511
31.74 7.07364
31.78 6.98914
31.82 7.04413
31.86 6.99857
31.9 7.07392
31.94 7.06477
31.98 6.99015
32.02 7.0427
32.06 7.0824
32.1 7.1677
32.14 7.09699
32.18 7.36488
32.22 7.4189
32.26 7.32294
32.3 7.27212
32.34 7.27451
32.38 7.29643
32.42 7.20312
32.46 7.17011
32.5 7.08686
32.54 7.05943
32.58 7.25944
32.62 7.76553
32.66 8.15528
32.7 8.73546
32.74 9.73175
32.78 10.429
32.82 10.9833
32.86 11.323
32.9 10.9299
32.94 10.0722
32.98 8.95545
33.02 7.92431
33.06 7.19561
33.1 6.9148
33.14 6.72908
33.18 6.75507
33.22 6.79767
33.26 6.58464
33.3 6.48216
33.34 6.48118
33.38 6.51578
33.42 6.48718
33.46 6.55646
33.5 6.73018
33.54 6.77027
33.58 6.68177
33.62 6.67212
33.66 6.64022
33.7 6.68321
33.74 6.66501
33.78 6.58099
33.82 6.48224
33.86 6.55147
33.9 6.38907
33.94 6.31813
33.98 6.42498
34.02 6.39016
34.06 6.26446
34.1 6.29895
34.14 6.39452
34.18 6.45425
34.22 6.49121
34.26 6.40506
34.3 6.38188
34.34 6.2981
34.38 6.25879
34.42 6.1541
34.46 6.36015
34.5 6.31797
34.54 6.28274
34.58 6.24476
34.62 6.15504
34.66 6.1991
34.7 6.32263
34.74 6.3513
34.78 6.30833
34.82 6.22734
34.86 6.13095
34.9 6.22129
34.94 6.18493
34.98 6.1588
35.02 6.05435
35.06 6.2316
35.1 6.19377
35.14 6.13343
35.18 6.11983
35.22 6.25954
35.26 6.1872
35.3 6.18091
35.34 6.13327
35.38 5.89056
35.42 5.95176
35.46 6.05318
35.5 6.10438
35.54 5.9808
35.58 5.94582
35.62 5.95458
35.66 5.93798
35.7 5.96014
35.74 5.92218
35.78 6.12939
35.82 6.15514
35.86 6.15597
35.9 6.23825
35.94 6.23203
35.98 6.38508
36.02 6.31947
36.06 6.0829
36.1 5.98862
36.14 5.98899
36.18 5.81374
36.22 5.85855
36.26 5.87678
36.3 5.84545
36.34 5.86595
36.38 5.76767
36.42 5.70942
36.46 5.80864
36.5 5.78477
36.54 5.77817
36.58 5.74476
36.62 5.69648
36.66 5.75206
36.7 5.72697
36.74 5.79819
36.78 5.82922
36.82 5.74984
36.86 5.7824
36.9 5.77231
36.94 5.80078
36.98 5.89232
37.02 5.64648
37.06 5.60703
37.1 5.61714
37.14 5.54355
37.18 5.56062
37.22 5.63859
37.26 5.61455
37.3 5.62068
37.34 5.59595
37.38 5.50602
37.42 5.54064
37.46 5.57543
37.5 5.6683
37.54 5.73689
37.58 5.55062
37.62 5.32976
37.66 5.36205
37.7 5.42396
37.74 5.42109
37.78 5.38172
37.82 5.21162
37.86 5.3896
37.9 5.28396
37.94 5.37737
37.98 5.46116
38.02 5.38398
38.06 5.25963
38.1 5.40825
38.14 5.36031
38.18 5.33355
38.22 5.42976
38.26 5.35749
38.3 5.39137
38.34 5.34283
38.38 5.36802
38.42 5.40239
38.46 5.45913
38.5 5.48043
38.54 5.59665
38.58 5.55432
38.62 5.57015
38.66 5.55568
38.7 5.48119
38.74 5.56776
38.78 5.61969
38.82 5.36837
38.86 5.44242
38.9 5.32121
38.94 5.32643
38.98 5.1909
39.02 5.14055
39.06 5.17183
39.1 5.0027
39.14 4.96455
39.18 5.08637
39.22 5.23718
39.26 5.16325
39.3 5.10358
39.34 5.11638
39.38 5.13894
39.42 5.1629
39.46 5.03089
39.5 5.13165
39.54 5.17962
39.58 5.09294
39.62 5.13446
39.66 5.12717
39.7 5.14678
39.74 5.1943
39.78 5.18696
39.82 5.21035
39.86 5.27369
39.9 5.14998
39.94 5.12747
39.98 5.08392
40.02 5.07594
40.06 4.96898
40.1 4.89189
40.14 5.08584
40.18 5.24281
40.22 5.29948
40.26 5.32699
40.3 5.28202
40.34 5.4267
40.38 5.39656
40.42 5.35366
40.46 5.25556
40.5 5.33796
40.54 5.31701
40.58 5.20672
40.62 5.08032
40.66 5.03943
40.7 5.19791
40.74 5.14345
40.78 5.13934
40.82 5.08492
40.86 5.05009
40.9 5.12507
40.94 5.19823
40.98 5.13979
41.02 5.05704
41.06 5.07805
41.1 4.92868
41.14 4.94854
41.18 5.12035
41.22 5.16309
41.26 4.98458
41.3 5.15776
41.34 5.06707
41.38 5.16294
41.42 5.12602
41.46 5.04267
41.5 5.24456
41.54 5.29179
41.58 5.49628
41.62 5.81911
41.66 5.80849
41.7 5.97149
41.74 6.09086
41.78 6.03673
41.82 5.87228
41.86 5.66697
41.9 5.40282
41.94 5.19724
41.98 5.0562
42.02 5.04884
42.06 5.17717
42.1 5.15267
42.14 5.19299
42.18 5.27209
42.22 5.12872
42.26 5.12545
42.3 5.18032
42.34 5.1345
42.38 5.09703
42.42 5.08868
42.46 5.09702
42.5 5.11554
42.54 5.07235
42.58 5.04345
42.62 5.07708
42.66 5.13783
42.7 5.08328
42.74 4.95794
42.78 5.03601
42.82 4.98874
42.86 5.07303
42.9 5.10522
42.94 5.10716
42.98 5.03969
43.02 4.99845
43.06 5.01751
43.1 5.1039
43.14 5.13158
43.18 5.03904
43.22 5.03955
43.26 5.12391
43.3 5.08171
43.34 4.99686
43.38 4.99796
43.42 5.04395
43.46 5.05899
43.5 5.22129
43.54 4.92372
43.58 4.94809
43.62 5.08891
43.66 5.10944
43.7 5.06373
43.74 5.04717
43.78 5.08111
43.82 5.02331
43.86 5.11334
43.9 5.17386
43.94 5.16011
43.98 5.2151
44.02 5.17362
44.06 5.33251
44.1 5.59103
44.14 5.59889
44.18 5.87243
44.22 6.09585
44.26 6.39096
44.3 6.86647
44.34 7.13791
44.38 7.13371
44.42 6.98435
44.46 6.7605
44.5 6.61338
44.54 6.31184
44.58 5.69523
44.62 5.26066
44.66 5.25416
44.7 5.15321
44.74 5.0592
44.78 4.98671
44.82 5.01237
44.86 4.98835
44.9 4.89881
44.94 4.90363
44.98 4.94671
45.02 4.99217
45.06 4.88154
45.1 4.85283
45.14 4.76147
45.18 4.94234
45.22 4.95948
45.26 4.87514
45.3 4.82818
45.34 4.85011
45.38 4.862
45.42 4.76821
45.46 4.8212
45.5 4.78439
45.54 4.71371
45.58 4.68987
45.62 4.71326
45.66 4.68604
45.7 4.74469
45.74 4.81147
45.78 4.72473
45.82 4.62567
45.86 4.68535
45.9 4.58269
45.94 4.62501
45.98 4.56839
46.02 4.43423
46.06 4.50931
46.1 4.46986
46.14 4.70078
46.18 4.62833
46.22 4.53991
46.26 4.47961
46.3 4.46644
46.34 4.50965
46.38 4.52762
46.42 4.49747
46.46 4.43464
46.5 4.53539
46.54 4.60938
46.58 4.64082
46.62 4.58533
46.66 4.67105
46.7 4.7935
46.74 4.94659
46.78 4.88798
46.82 4.66514
46.86 4.67715
46.9 4.79118
46.94 4.72925
46.98 4.53187
47.02 4.52605
47.06 4.55039
47.1 4.51616
47.14 4.5486
47.18 4.52281
47.22 4.52032
47.26 4.48738
47.3 4.41828
47.34 4.47916
47.38 4.62752
47.42 4.47547
47.46 4.28773
47.5 4.4328
47.54 4.52882
47.58 4.4744
47.62 4.49649
47.66 4.32137
47.7 4.2937
47.74 4.34011
47.78 4.37459
47.82 4.36454
47.86 4.46664
47.9 4.37475
47.94 4.38304
47.98 4.43211
48.02 4.40799
48.06 4.34591
48.1 4.29986
48.14 4.37687
48.18 4.29747
48.22 4.35776
48.26 4.43772
48.3 4.38327
48.34 4.35161
48.38 4.32953
48.42 4.28075
48.46 4.31414
48.5 4.43405
48.54 4.39255
48.58 4.37027
48.62 4.35261
48.66 4.43038
48.7 4.49081
48.74 4.45325
48.78 4.46881
48.82 4.38236
48.86 4.20395
48.9 4.28853
48.94 4.41328
48.98 4.28885
49.02 4.26922
49.06 4.29842
49.1 4.40651
49.14 4.33492
49.18 4.24802
49.22 4.33652
49.26 4.39688
49.3 4.26927
49.34 4.29871
49.38 4.40883
49.42 4.40149
49.46 4.35402
49.5 4.3101
49.54 4.51116
49.58 4.36996
49.62 4.28199
49.66 4.39594
49.7 4.38628
49.74 4.3808
49.78 4.39767
49.82 4.40648
49.86 4.37613
49.9 4.28561
49.94 4.23578
49.98 4.34103
50.02 4.47182
50.06 4.40775
50.1 4.27882
50.14 4.27322
50.18 4.32993
50.22 4.33756
50.26 4.20439
50.3 4.21633
50.34 4.19816
50.38 4.13756
50.42 4.19571
50.46 4.22294
50.5 4.31306
50.54 4.20583
50.58 4.26877
50.62 4.24261
50.66 4.25185
50.7 4.29133
50.74 4.324
50.78 4.34547
50.82 4.35446
50.86 4.41105
50.9 4.27574
50.94 4.19098
50.98 4.16847
51.02 4.1643
51.06 4.22271
51.1 4.11232
51.14 4.15842
51.18 4.21049
51.22 4.2201
51.26 4.17185
51.3 4.19578
51.34 4.25332
51.38 4.18384
51.42 4.23141
51.46 4.35837
51.5 4.29473
51.54 4.30767
51.58 4.36724
51.62 4.3902
51.66 4.48142
51.7 4.41532
51.74 4.25756
51.78 4.3429
51.82 4.4279
51.86 4.3161
51.9 4.32892
51.94 4.35634
51.98 4.38546
52.02 4.34663
52.06 4.28235
52.1 4.25323
52.14 4.16991
52.18 4.15488
52.22 4.14548
52.26 4.19778
52.3 4.2154
52.34 4.24972
52.38 4.23622
52.42 4.18485
52.46 4.17061
52.5 4.1256
52.54 4.17873
52.58 4.23159
52.62 4.34419
52.66 4.25995
52.7 4.27208
52.74 4.16316
52.78 4.12486
52.82 4.05769
52.86 4.24838
52.9 4.42914
52.94 4.22052
52.98 4.22901
53.02 4.34301
53.06 4.26798
53.1 4.29597
53.14 4.26028
53.18 4.26131
53.22 4.19948
53.26 4.12948
53.3 4.24156
53.34 4.26674
53.38 4.19875
53.42 4.13882
53.46 4.12195
53.5 4.16215
53.54 4.26597
53.58 4.22298
53.62 4.29002
53.66 4.29015
53.7 4.34394
53.74 4.35988
53.78 4.30914
53.82 4.2366
53.86 4.33574
53.9 4.30372
53.94 4.32776
53.98 4.39743
54.02 4.34271
54.06 4.28916
54.1 4.22025
54.14 4.39187
54.18 4.34827
54.22 4.26891
54.26 4.33876
54.3 4.34467
54.34 4.27711
54.38 4.35859
54.42 4.43376
54.46 4.30771
54.5 4.30545
54.54 4.40853
54.58 4.31601
54.62 4.30628
54.66 4.37987
54.7 4.48015
54.74 4.42252
54.78 4.33546
54.82 4.28425
54.86 4.32781
54.9 4.21857
54.94 4.38064
54.98 4.42211
55.02 4.24534
55.06 4.24369
55.1 4.23852
55.14 4.1542
55.18 4.20525
55.22 4.30295
55.26 4.17345
55.3 4.20768
55.34 4.23711
55.38 4.23277
55.42 4.34562
55.46 4.36552
55.5 4.31314
55.54 4.59778
55.58 4.54502
55.62 4.54824
55.66 4.46364
55.7 4.4505
55.74 4.37465
55.78 4.24359
55.82 4.39958
55.86 4.51602
55.9 4.40911
55.94 4.37567
55.98 4.46861
56.02 4.58638
56.06 4.54376
56.1 4.44402
56.14 4.28612
56.18 4.42425
56.22 4.46627
56.26 4.28597
56.3 4.59553
56.34 4.60552
56.38 4.1951
56.42 4.56431
56.46 4.69087
56.5 4.80499
56.54 4.79481
56.58 4.46532
56.62 4.62317
56.66 4.81674
56.7 4.80722
56.74 5.40844
56.78 5.31929
56.82 5.14697
56.86 5.39791
56.9 3.25609