File: data/XRD_data/2018_8-7XRD/2018_8-7 FAGACs_1p25PEAI001_exported.xy
'Id: "" Comment: "Integrate frame 2018_8-7 FAGACs_1p25PEAI001.gfrmwith cursor Full Frame Cursor #3" Operator: "MAF user" Anode: "Cu" Scantype: "TwoTheta" TimePerStep: "90"
10.74 6.34201
10.78 6.3951
10.82 6.01554
10.86 5.70025
10.9 5.16358
10.94 5.08275
10.98 4.90783
11.02 5.03511
11.06 5.0736
11.1 4.98449
11.14 4.90444
11.18 4.64651
11.22 4.70033
11.26 4.92098
11.3 4.88258
11.34 4.75586
11.38 4.50784
11.42 4.69723
11.46 4.68916
11.5 4.72945
11.54 4.78591
11.58 4.62863
11.62 4.60726
11.66 4.83848
11.7 4.6347
11.74 4.73632
11.78 5.01021
11.82 4.94588
11.86 4.76591
11.9 4.87012
11.94 4.86663
11.98 4.86766
12.02 4.77416
12.06 4.8186
12.1 4.84991
12.14 4.78122
12.18 4.83902
12.22 4.94232
12.26 4.91746
12.3 4.86122
12.34 4.69612
12.38 4.80862
12.42 4.87998
12.46 4.89884
12.5 5.02214
12.54 4.91452
12.58 4.76923
12.62 4.66405
12.66 4.78073
12.7 4.84525
12.74 4.88131
12.78 5.00709
12.82 4.92628
12.86 4.88125
12.9 4.97753
12.94 4.75635
12.98 4.75119
13.02 4.80427
13.06 4.92235
13.1 4.8994
13.14 4.80927
13.18 4.88765
13.22 4.85806
13.26 4.91076
13.3 4.79369
13.34 4.91581
13.38 4.92251
13.42 4.88036
13.46 4.92205
13.5 4.97084
13.54 5.08672
13.58 5.02188
13.62 4.99056
13.66 4.94219
13.7 4.8613
13.74 4.96059
13.78 5.08111
13.82 5.01947
13.86 4.84704
13.9 4.92342
13.94 4.98527
13.98 4.95234
14.02 5.00558
14.06 5.01753
14.1 5.07161
14.14 5.12533
14.18 5.16083
14.22 5.27349
14.26 5.26676
14.3 5.21702
14.34 5.31376
14.38 5.45715
14.42 5.54676
14.46 5.79147
14.5 6.0855
14.54 6.43595
14.58 6.79417
14.62 7.34132
14.66 8.1637
14.7 9.07787
14.74 10.0306
14.78 10.6961
14.82 10.7708
14.86 10.5667
14.9 9.6775
14.94 8.72609
14.98 7.95952
15.02 7.1323
15.06 6.56223
15.1 5.96067
15.14 5.62889
15.18 5.4837
15.22 5.37983
15.26 5.30054
15.3 5.14575
15.34 5.10336
15.38 5.14895
15.42 4.96285
15.46 4.96965
15.5 4.90505
15.54 5.0153
15.58 5.02976
15.62 4.91843
15.66 4.97394
15.7 4.95457
15.74 4.89739
15.78 4.98454
15.82 4.92337
15.86 4.77731
15.9 4.88059
15.94 4.94776
15.98 4.88733
16.02 4.78563
16.06 4.80062
16.1 4.71144
16.14 4.76682
16.18 4.85881
16.22 4.93392
16.26 4.88891
16.3 4.95424
16.34 4.99392
16.38 4.89776
16.42 4.8949
16.46 5.04113
16.5 5.01507
16.54 4.97165
16.58 4.94643
16.62 4.8988
16.66 4.90119
16.7 5.01608
16.74 5.01645
16.78 4.97262
16.82 5.06173
16.86 4.96413
16.9 4.97699
16.94 5.02595
16.98 5.02046
17.02 5.09425
17.06 5.09324
17.1 5.14611
17.14 5.03923
17.18 5.02127
17.22 5.01422
17.26 4.99954
17.3 5.07605
17.34 5.14203
17.38 5.08455
17.42 5.04129
17.46 5.06352
17.5 5.08675
17.54 5.10931
17.58 5.07792
17.62 5.12689
17.66 5.08328
17.7 5.1673
17.74 5.21525
17.78 5.14276
17.82 5.16273
17.86 5.28016
17.9 5.25087
17.94 5.23545
17.98 5.26885
18.02 5.1894
18.06 5.23983
18.1 5.30977
18.14 5.23607
18.18 5.18818
18.22 5.21745
18.26 5.37292
18.3 5.40678
18.34 5.32423
18.38 5.26815
18.42 5.28774
18.46 5.30544
18.5 5.34536
18.54 5.34809
18.58 5.48991
18.62 5.5238
18.66 5.41876
18.7 5.41568
18.74 5.56806
18.78 5.528
18.82 5.4473
18.86 5.44377
18.9 5.52097
18.94 5.49142
18.98 5.4168
19.02 5.50306
19.06 5.57799
19.1 5.49133
19.14 5.5132
19.18 5.66954
19.22 5.70741
19.26 5.6115
19.3 5.5637
19.34 5.61299
19.38 5.73211
19.42 5.67176
19.46 5.68224
19.5 5.69019
19.54 5.8091
19.58 5.78418
19.62 5.76452
19.66 5.80275
19.7 5.8299
19.74 5.86198
19.78 5.84122
19.82 5.8722
19.86 5.91427
19.9 5.905
19.94 5.89725
19.98 5.87518
20.02 6.0701
20.06 6.00629
20.1 5.96927
20.14 6.03844
20.18 5.94129
20.22 5.9997
20.26 6.10915
20.3 6.21946
20.34 6.15656
20.38 6.02601
20.42 6.16533
20.46 6.25751
20.5 6.31631
20.54 6.27206
20.58 6.43329
20.62 6.63855
20.66 6.73403
20.7 6.89546
20.74 7.1096
20.78 7.36131
20.82 7.77659
20.86 8.23727
20.9 8.72527
20.94 9.0438
20.98 9.11494
21.02 9.11728
21.06 9.01052
21.1 8.59143
21.14 8.26524
21.18 7.84395
21.22 7.47973
21.26 7.2712
21.3 7.10185
21.34 6.95715
21.38 6.84028
21.42 6.74365
21.46 6.88189
21.5 6.78727
21.54 6.68127
21.58 6.7494
21.62 6.72411
21.66 6.75109
21.7 6.82384
21.74 6.74833
21.78 6.71509
21.82 6.68739
21.86 6.68082
21.9 6.70222
21.94 6.76928
21.98 6.81054
22.02 6.80122
22.06 6.85489
22.1 6.76939
22.14 6.80263
22.18 6.88793
22.22 6.91941
22.26 6.87899
22.3 6.89011
22.34 6.90242
22.38 6.86897
22.42 6.95959
22.46 7.09928
22.5 7.04444
22.54 7.12597
22.58 7.08195
22.62 7.11823
22.66 7.1382
22.7 7.15503
22.74 7.16962
22.78 7.13016
22.82 7.06813
22.86 7.00937
22.9 7.0695
22.94 6.98562
22.98 7.16566
23.02 7.10978
23.06 7.10556
23.1 7.12725
23.14 7.16926
23.18 7.24765
23.22 7.29663
23.26 7.2938
23.3 7.31617
23.34 7.46603
23.38 7.44252
23.42 7.44012
23.46 7.39581
23.5 7.3583
23.54 7.41704
23.58 7.51402
23.62 7.48338
23.66 7.48211
23.7 7.37257
23.74 7.55714
23.78 7.43891
23.82 7.37846
23.86 7.35409
23.9 7.43729
23.94 7.39326
23.98 7.34539
24.02 7.31818
24.06 7.33469
24.1 7.39885
24.14 7.36307
24.18 7.44688
24.22 7.52105
24.26 7.35345
24.3 7.3881
24.34 7.33002
24.38 7.30642
24.42 7.33491
24.46 7.40059
24.5 7.46876
24.54 7.49328
24.58 7.56459
24.62 7.59388
24.66 7.41399
24.7 7.42013
24.74 7.36609
24.78 7.45135
24.82 7.49404
24.86 7.45553
24.9 7.54889
24.94 7.48679
24.98 7.53107
25.02 7.5384
25.06 7.53677
25.1 7.59908
25.14 7.63416
25.18 7.73003
25.22 7.67324
25.26 7.7477
25.3 7.80092
25.34 7.97815
25.38 8.15329
25.42 8.18866
25.46 8.22519
25.5 8.2731
25.54 8.27213
25.58 8.18257
25.62 8.2144
25.66 7.90553
25.7 7.75177
25.74 7.73869
25.78 7.77075
25.82 7.71991
25.86 7.75372
25.9 7.75568
25.94 7.70352
25.98 7.71146
26.02 7.6153
26.06 7.57107
26.1 7.47739
26.14 7.4766
26.18 7.48447
26.22 7.62967
26.26 7.50866
26.3 7.58828
26.34 7.63348
26.38 7.56459
26.42 7.63929
26.46 7.5983
26.5 7.59323
26.54 7.54872
26.58 7.55936
26.62 7.58085
26.66 7.52586
26.7 7.56679
26.74 7.54375
26.78 7.51782
26.82 7.41249
26.86 7.4575
26.9 7.53351
26.94 7.46566
26.98 7.51854
27.02 7.53913
27.06 7.49528
27.1 7.46211
27.14 7.53219
27.18 7.46524
27.22 7.53452
27.26 7.52344
27.3 7.50322
27.34 7.62143
27.38 7.54384
27.42 7.60061
27.46 7.55105
27.5 7.55782
27.54 7.64363
27.58 7.65788
27.62 7.6979
27.66 7.44926
27.7 7.47085
27.74 7.59026
27.78 7.52391
27.82 7.34404
27.86 7.41106
27.9 7.56752
27.94 7.50211
27.98 7.50557
28.02 7.63094
28.06 7.51877
28.1 7.4629
28.14 7.55915
28.18 7.52347
28.22 7.42217
28.26 7.6101
28.3 7.54147
28.34 7.57042
28.38 7.58695
28.42 7.59884
28.46 7.60544
28.5 7.64461
28.54 7.65239
28.58 7.78688
28.62 7.65863
28.66 7.65112
28.7 7.62156
28.74 7.55511
28.78 7.52631
28.82 7.80135
28.86 7.83199
28.9 7.75012
28.94 7.81608
28.98 7.82702
29.02 7.95801
29.06 8.10799
29.1 8.18234
29.14 8.2718
29.18 8.42398
29.22 8.46833
29.26 8.89578
29.3 9.35785
29.34 9.85243
29.38 10.5065
29.42 11.2152
29.46 11.6636
29.5 11.982
29.54 12.0713
29.58 11.9167
29.62 11.5114
29.66 10.96
29.7 10.2962
29.74 9.64364
29.78 9.13114
29.82 8.64288
29.86 8.37555
29.9 8.19564
29.94 7.86384
29.98 7.82253
30.02 7.73045
30.06 7.67415
30.1 7.57161
30.14 7.49805
30.18 7.52752
30.22 7.39736
30.26 7.30052
30.3 7.45858
30.34 7.41116
30.38 7.30077
30.42 7.22277
30.46 7.22389
30.5 7.07897
30.54 7.16821
30.58 7.24658
30.62 7.19033
30.66 7.13258
30.7 7.27359
30.74 7.17892
30.78 7.16429
30.82 7.08764
30.86 7.09557
30.9 7.1058
30.94 7.15182
30.98 7.23049
31.02 7.17887
31.06 7.23977
31.1 7.15937
31.14 7.12249
31.18 7.11789
31.22 7.04397
31.26 7.00259
31.3 7.09101
31.34 7.16022
31.38 7.17324
31.42 7.13593
31.46 7.11182
31.5 7.08309
31.54 7.18369
31.58 7.20631
31.62 7.02892
31.66 6.97253
31.7 6.97769
31.74 6.98677
31.78 6.94299
31.82 6.9229
31.86 6.90239
31.9 7.02909
31.94 7.01013
31.98 6.98221
32.02 7.09461
32.06 7.02897
32.1 6.95675
32.14 6.99703
32.18 7.07181
32.22 6.99753
32.26 6.98313
32.3 7.03544
32.34 6.93626
32.38 6.86752
32.42 6.92805
32.46 7.08934
32.5 7.01666
32.54 7.07297
32.58 7.1062
32.62 7.15705
32.66 7.25139
32.7 7.32591
32.74 7.5026
32.78 7.61788
32.82 7.83752
32.86 8.04289
32.9 8.28255
32.94 8.48798
32.98 8.9416
33.02 9.23805
33.06 9.2622
33.1 9.2743
33.14 8.96595
33.18 8.60358
33.22 8.37869
33.26 8.07965
33.3 7.70146
33.34 7.39985
33.38 7.14608
33.42 7.09141
33.46 6.94231
33.5 6.84392
33.54 6.97457
33.58 6.87706
33.62 6.81201
33.66 6.726
33.7 6.77998
33.74 6.6908
33.78 6.48259
33.82 6.56018
33.86 6.42946
33.9 6.43888
33.94 6.42464
33.98 6.42848
34.02 6.45018
34.06 6.40114
34.1 6.33659
34.14 6.39094
34.18 6.37853
34.22 6.3579
34.26 6.3123
34.3 6.19011
34.34 6.3186
34.38 6.32097
34.42 6.18072
34.46 6.13912
34.5 6.17762
34.54 6.1467
34.58 6.21959
34.62 6.29788
34.66 6.24181
34.7 6.2355
34.74 6.13118
34.78 6.23953
34.82 6.17373
34.86 6.23981
34.9 6.03353
34.94 6.07898
34.98 6.07973
35.02 6.05476
35.06 6.08913
35.1 6.06923
35.14 6.15683
35.18 6.10597
35.22 6.12174
35.26 6.03972
35.3 5.95977
35.34 5.87526
35.38 5.84013
35.42 6.05009
35.46 5.93207
35.5 5.98731
35.54 5.92252
35.58 5.98181
35.62 6.02766
35.66 6.04955
35.7 5.99275
35.74 6.01676
35.78 6.0744
35.82 6.11128
35.86 6.10739
35.9 6.129
35.94 6.21666
35.98 6.21284
36.02 6.40483
36.06 6.58518
36.1 6.62296
36.14 6.56397
36.18 6.79314
36.22 6.72336
36.26 6.75846
36.3 6.61178
36.34 6.39207
36.38 6.27387
36.42 6.17963
36.46 6.08025
36.5 5.96437
36.54 5.98792
36.58 5.84686
36.62 5.84065
36.66 5.63536
36.7 5.57671
36.74 5.6726
36.78 5.64169
36.82 5.61161
36.86 5.65616
36.9 5.58144
36.94 5.47753
36.98 5.47469
37.02 5.50793
37.06 5.58786
37.1 5.57768
37.14 5.52629
37.18 5.44706
37.22 5.36147
37.26 5.42958
37.3 5.38945
37.34 5.37614
37.38 5.33367
37.42 5.32022
37.46 5.42292
37.5 5.58354
37.54 5.41381
37.58 5.35274
37.62 5.46019
37.66 5.55207
37.7 5.54819
37.74 5.38323
37.78 5.1752
37.82 5.2699
37.86 5.34101
37.9 5.32352
37.94 5.25341
37.98 5.23894
38.02 5.23956
38.06 5.34963
38.1 5.24422
38.14 5.17313
38.18 5.22779
38.22 5.34903
38.26 5.30069
38.3 5.27799
38.34 5.31753
38.38 5.19824
38.42 5.21273
38.46 5.22081
38.5 5.1491
38.54 5.21228
38.58 5.29622
38.62 5.31005
38.66 5.2346
38.7 5.21554
38.74 5.01417
38.78 5.09664
38.82 5.24538
38.86 5.16165
38.9 5.20111
38.94 5.27063
38.98 5.19856
39.02 5.20998
39.06 5.10164
39.1 5.06869
39.14 5.09688
39.18 5.25156
39.22 5.13196
39.26 5.13394
39.3 5.29362
39.34 5.27685
39.38 5.04856
39.42 4.91722
39.46 5.05901
39.5 5.03513
39.54 5.07237
39.58 5.18429
39.62 5.12792
39.66 5.0614
39.7 5.2107
39.74 5.16445
39.78 5.22718
39.82 5.25334
39.86 5.39005
39.9 5.29923
39.94 5.25486
39.98 5.27898
40.02 5.20211
40.06 5.22775
40.1 5.18689
40.14 5.16758
40.18 5.24256
40.22 5.22395
40.26 5.20398
40.3 5.17269
40.34 5.11095
40.38 5.1144
40.42 5.06015
40.46 5.3132
40.5 5.32624
40.54 5.1611
40.58 5.154
40.62 5.20777
40.66 5.05823
40.7 4.9996
40.74 5.24336
40.78 5.1445
40.82 5.10625
40.86 5.22419
40.9 5.1948
40.94 5.05681
40.98 5.16228
41.02 5.34644
41.06 5.1876
41.1 5.21879
41.14 5.16548
41.18 5.19517
41.22 5.19386
41.26 5.17518
41.3 5.29417
41.34 5.3885
41.38 5.33085
41.42 5.29296
41.46 5.33403
41.5 5.32665
41.54 5.41303
41.58 5.44367
41.62 5.4174
41.66 5.5267
41.7 5.60065
41.74 5.83435
41.78 5.93137
41.82 6.07478
41.86 6.13188
41.9 6.41869
41.94 6.58924
41.98 6.58759
42.02 6.72418
42.06 6.8211
42.1 6.65464
42.14 6.46386
42.18 6.39876
42.22 6.02024
42.26 5.85962
42.3 5.64592
42.34 5.48577
42.38 5.4029
42.42 5.43183
42.46 5.32848
42.5 5.35796
42.54 5.2438
42.58 5.18155
42.62 5.17214
42.66 5.06787
42.7 5.0281
42.74 5.01101
42.78 5.20687
42.82 5.1727
42.86 5.02802
42.9 4.96098
42.94 5.01861
42.98 5.06832
43.02 4.95352
43.06 4.95248
43.1 4.983
43.14 4.97522
43.18 5.05095
43.22 5.13913
43.26 5.02147
43.3 4.99139
43.34 4.99602
43.38 5.03008
43.42 4.98522
43.46 4.92261
43.5 4.86527
43.54 4.91594
43.58 5.03391
43.62 4.9641
43.66 4.95542
43.7 4.93223
43.74 5.08804
43.78 5.09414
43.82 5.02146
43.86 5.09104
43.9 5.08155
43.94 5.09706
43.98 4.98666
44.02 5.00222
44.06 4.90054
44.1 4.94725
44.14 5.0011
44.18 5.05572
44.22 5.04613
44.26 4.99126
44.3 5.13118
44.34 5.2471
44.38 5.30304
44.42 5.45129
44.46 5.58734
44.5 5.70352
44.54 5.93239
44.58 6.01671
44.62 5.95502
44.66 6.00941
44.7 5.83848
44.74 5.80043
44.78 5.70138
44.82 5.54858
44.86 5.6649
44.9 5.52528
44.94 5.31633
44.98 5.2893
45.02 5.11492
45.06 4.93687
45.1 4.9538
45.14 4.95386
45.18 4.92335
45.22 4.90622
45.26 4.8719
45.3 4.77947
45.34 4.86867
45.38 4.81079
45.42 4.78956
45.46 4.7672
45.5 4.94056
45.54 5.05198
45.58 4.82395
45.62 4.64726
45.66 4.76004
45.7 4.75289
45.74 4.7657
45.78 4.83102
45.82 4.78
45.86 4.85122
45.9 4.68913
45.94 4.65472
45.98 4.72204
46.02 4.79994
46.06 4.81881
46.1 4.79536
46.14 4.73268
46.18 4.7162
46.22 4.66913
46.26 4.5965
46.3 4.74948
46.34 4.63748
46.38 4.72439
46.42 4.6131
46.46 4.66941
46.5 4.67956
46.54 4.58121
46.58 4.69246
46.62 4.66853
46.66 4.5725
46.7 4.58969
46.74 4.59985
46.78 4.69653
46.82 4.6736
46.86 4.69051
46.9 4.69267
46.94 4.66689
46.98 4.77617
47.02 4.68375
47.06 4.64542
47.1 4.65632
47.14 4.66956
47.18 4.72031
47.22 4.69647
47.26 4.66113
47.3 4.5856
47.34 4.69665
47.38 4.65046
47.42 4.69296
47.46 4.6582
47.5 4.64194
47.54 4.6562
47.58 4.47632
47.62 4.47067
47.66 4.57718
47.7 4.57207
47.74 4.43315
47.78 4.44255
47.82 4.59064
47.86 4.59502
47.9 4.6924
47.94 4.56341
47.98 4.685
48.02 4.56961
48.06 4.43896
48.1 4.53328
48.14 4.52345
48.18 4.46353
48.22 4.51121
48.26 4.58199
48.3 4.67553
48.34 4.53997
48.38 4.59734
48.42 4.62871
48.46 4.66558
48.5 4.50005
48.54 4.58854
48.58 4.61189
48.62 4.5852
48.66 4.50865
48.7 4.60885
48.74 4.56825
48.78 4.51415
48.82 4.47328
48.86 4.47398
48.9 4.55512
48.94 4.45576
48.98 4.49375
49.02 4.42105
49.06 4.48329
49.1 4.43518
49.14 4.39333
49.18 4.46615
49.22 4.51625
49.26 4.52393
49.3 4.44529
49.34 4.40731
49.38 4.41958
49.42 4.45217
49.46 4.40403
49.5 4.3722
49.54 4.43969
49.58 4.41191
49.62 4.41248
49.66 4.48668
49.7 4.40301
49.74 4.41171
49.78 4.52194
49.82 4.52703
49.86 4.49772
49.9 4.45707
49.94 4.36158
49.98 4.39396
50.02 4.41743
50.06 4.38068
50.1 4.34227
50.14 4.45362
50.18 4.59958
50.22 4.42104
50.26 4.39008
50.3 4.31557
50.34 4.19924
50.38 4.33112
50.42 4.3913
50.46 4.4704
50.5 4.45603
50.54 4.45047
50.58 4.32566
50.62 4.2572
50.66 4.38891
50.7 4.46797
50.74 4.471
50.78 4.53181
50.82 4.36441
50.86 4.39922
50.9 4.39231
50.94 4.50027
50.98 4.45437
51.02 4.3776
51.06 4.21008
51.1 4.39821
51.14 4.34376
51.18 4.32965
51.22 4.3272
51.26 4.3078
51.3 4.28326
51.34 4.28783
51.38 4.39562
51.42 4.36899
51.46 4.39827
51.5 4.47571
51.54 4.43257
51.58 4.3963
51.62 4.50343
51.66 4.48861
51.7 4.52614
51.74 4.50598
51.78 4.63084
51.82 4.69124
51.86 4.69971
51.9 4.67899
51.94 4.6116
51.98 4.44116
52.02 4.54415
52.06 4.50751
52.1 4.48392
52.14 4.52325
52.18 4.45062
52.22 4.36043
52.26 4.33575
52.3 4.41586
52.34 4.39805
52.38 4.51856
52.42 4.40335
52.46 4.33964
52.5 4.37308
52.54 4.34969
52.58 4.34542
52.62 4.3642
52.66 4.25641
52.7 4.27211
52.74 4.29988
52.78 4.38227
52.82 4.24213
52.86 4.21833
52.9 4.17811
52.94 4.21699
52.98 4.23205
53.02 4.20286
53.06 4.26637
53.1 4.28083
53.14 4.3993
53.18 4.3723
53.22 4.41475
53.26 4.36903
53.3 4.29222
53.34 4.33351
53.38 4.30524
53.42 4.26875
53.46 4.26305
53.5 4.29293
53.54 4.42902
53.58 4.29214
53.62 4.19224
53.66 4.33324
53.7 4.34433
53.74 4.24398
53.78 4.34054
53.82 4.22043
53.86 4.20078
53.9 4.19912
53.94 4.20826
53.98 4.24094
54.02 4.28068
54.06 4.38349
54.1 4.38112
54.14 4.37372
54.18 4.38053
54.22 4.35525
54.26 4.32756
54.3 4.32843
54.34 4.35158
54.38 4.37151
54.42 4.36541
54.46 4.28206
54.5 4.41378
54.54 4.34327
54.58 4.23831
54.62 4.31383
54.66 4.33252
54.7 4.32201
54.74 4.27874
54.78 4.25824
54.82 4.20998
54.86 4.24419
54.9 4.28474
54.94 4.34074
54.98 4.37
55.02 4.30981
55.06 4.29543
55.1 4.32994
55.14 4.1902
55.18 4.17757
55.22 4.25694
55.26 4.31576
55.3 4.2815
55.34 4.28522
55.38 4.22478
55.42 4.26335
55.46 4.3481
55.5 4.27401
55.54 4.61222
55.58 4.72745
55.62 4.62525
55.66 4.70045
55.7 4.68819
55.74 4.52646
55.78 4.39437
55.82 4.49067
55.86 4.53095
55.9 4.70047
55.94 4.749
55.98 4.55183
56.02 4.60871
56.06 4.85668
56.1 4.86215
56.14 4.78917
56.18 4.51407
56.22 4.71578
56.26 5.05308
56.3 5.04436
56.34 4.83375
56.38 4.7141
56.42 4.7804
56.46 5.30001
56.5 5.00651
56.54 4.91983
56.58 5.126
56.62 4.78494
56.66 4.55331
56.7 5.38809
56.74 5.62482
56.78 5.43718
56.82 5.43755
56.86 7.61156
56.9 6.44684