File: data/XRD_data/2018_8-7XRD/2018_8-7 FAGACs_1p25FASCN001_exported.xy
'Id: "" Comment: "Integrate frame 2018_8-7 FAGACs_1p25FASCN001.gfrmwith cursor Full Frame Cursor #2" Operator: "MAF user" Anode: "Cu" Scantype: "TwoTheta" TimePerStep: "90"
10.74 7.04168
10.78 6.3525
10.82 6.06378
10.86 5.76195
10.9 5.3373
10.94 5.11349
10.98 4.65158
11.02 4.92453
11.06 4.62688
11.1 4.53672
11.14 4.7855
11.18 4.90967
11.22 4.73007
11.26 4.87625
11.3 4.72997
11.34 4.90725
11.38 4.62423
11.42 4.95859
11.46 5.23125
11.5 6.43823
11.54 6.87783
11.58 6.89112
11.62 5.5553
11.66 5.05735
11.7 4.85624
11.74 4.73722
11.78 4.82184
11.82 4.69659
11.86 4.78365
11.9 4.82862
11.94 4.5585
11.98 4.53389
12.02 4.64204
12.06 4.83312
12.1 4.79029
12.14 4.66428
12.18 4.54033
12.22 4.74067
12.26 4.7834
12.3 4.68462
12.34 4.69069
12.38 4.63575
12.42 4.63729
12.46 4.70017
12.5 4.79919
12.54 4.80931
12.58 4.82301
12.62 4.99061
12.66 4.98078
12.7 5.08887
12.74 5.25986
12.78 5.5015
12.82 6.03629
12.86 6.41042
12.9 8.12737
12.94 10.1942
12.98 10.7074
13.02 12.0265
13.06 11.4866
13.1 10.8582
13.14 8.83923
13.18 7.14493
13.22 6.6004
13.26 5.59944
13.3 5.2308
13.34 5.13855
13.38 4.93457
13.42 4.88501
13.46 4.95696
13.5 4.87904
13.54 4.85383
13.58 4.6623
13.62 4.73625
13.66 4.87104
13.7 4.79268
13.74 4.5644
13.78 4.73809
13.82 4.79782
13.86 4.6289
13.9 4.64135
13.94 4.80519
13.98 4.6797
14.02 4.61082
14.06 4.48834
14.1 4.76538
14.14 4.77043
14.18 4.77322
14.22 4.87676
14.26 4.76451
14.3 4.88312
14.34 4.90033
14.38 4.84145
14.42 4.98936
14.46 5.04379
14.5 5.28632
14.54 5.40821
14.58 5.87738
14.62 6.921
14.66 10.3704
14.7 19.8195
14.74 27.3267
14.78 29.8393
14.82 23.1292
14.86 15.462
14.9 8.25429
14.94 5.90512
14.98 5.31481
15.02 5.10398
15.06 4.93792
15.1 4.92242
15.14 4.816
15.18 4.71353
15.22 4.85223
15.26 4.85697
15.3 4.85087
15.34 4.80166
15.38 4.83537
15.42 4.70706
15.46 4.76734
15.5 4.81696
15.54 4.74224
15.58 4.7677
15.62 4.85342
15.66 4.87131
15.7 4.82618
15.74 4.76466
15.78 4.78638
15.82 4.87675
15.86 4.78159
15.9 4.68845
15.94 4.83011
15.98 4.84176
16.02 4.85162
16.06 4.77131
16.1 4.73721
16.14 4.70046
16.18 4.66957
16.22 4.74888
16.26 4.79626
16.3 4.76508
16.34 4.81742
16.38 4.78928
16.42 4.7647
16.46 4.81681
16.5 4.82125
16.54 4.88973
16.58 4.86248
16.62 4.83371
16.66 4.97586
16.7 4.92004
16.74 4.93583
16.78 5.02156
16.82 4.95719
16.86 4.9683
16.9 5.00496
16.94 4.97446
16.98 4.91294
17.02 4.95606
17.06 5.03536
17.1 4.96925
17.14 4.92535
17.18 4.9116
17.22 4.86489
17.26 4.86018
17.3 4.92929
17.34 5.02641
17.38 4.96655
17.42 4.92418
17.46 4.9545
17.5 5.02503
17.54 4.98038
17.58 5.03233
17.62 5.01489
17.66 5.0218
17.7 5.01078
17.74 5.0282
17.78 5.07566
17.82 5.16061
17.86 5.1215
17.9 5.12197
17.94 5.21278
17.98 5.30158
18.02 5.14773
18.06 5.14019
18.1 5.14778
18.14 5.13435
18.18 5.16779
18.22 5.19882
18.26 5.18711
18.3 5.30381
18.34 5.22683
18.38 5.24259
18.42 5.17454
18.46 5.14767
18.5 5.18284
18.54 5.29025
18.58 5.24107
18.62 5.26822
18.66 5.27436
18.7 5.21302
18.74 5.28118
18.78 5.35821
18.82 5.40722
18.86 5.32424
18.9 5.32422
18.94 5.29783
18.98 5.38876
19.02 5.41381
19.06 5.51015
19.1 5.43411
19.14 5.41445
19.18 5.54511
19.22 5.46633
19.26 5.43911
19.3 5.38409
19.34 5.57443
19.38 5.66823
19.42 5.45791
19.46 5.54794
19.5 5.63056
19.54 5.67201
19.58 5.71638
19.62 5.71953
19.66 5.73864
19.7 5.742
19.74 5.69888
19.78 5.75463
19.82 5.81593
19.86 5.83325
19.9 5.77672
19.94 5.74524
19.98 5.85736
20.02 5.86266
20.06 5.87037
20.1 5.75149
20.14 5.80578
20.18 5.87811
20.22 5.92284
20.26 5.87939
20.3 5.92347
20.34 5.96376
20.38 5.96556
20.42 5.98457
20.46 5.92516
20.5 6.0358
20.54 6.13777
20.58 6.13159
20.62 6.10245
20.66 6.27694
20.7 6.56256
20.74 6.85617
20.78 7.74826
20.82 9.4095
20.86 10.8554
20.9 11.5419
20.94 11.4059
20.98 10.5483
21.02 9.35477
21.06 8.25834
21.1 7.32398
21.14 6.72543
21.18 6.50059
21.22 6.43167
21.26 6.46655
21.3 6.39819
21.34 6.52697
21.38 6.3738
21.42 6.371
21.46 6.4434
21.5 6.47869
21.54 6.44267
21.58 6.43233
21.62 6.44966
21.66 6.50072
21.7 6.50325
21.74 6.52621
21.78 6.52333
21.82 6.5213
21.86 6.46593
21.9 6.53771
21.94 6.59633
21.98 6.59794
22.02 6.63912
22.06 6.45612
22.1 6.6694
22.14 6.63961
22.18 6.5804
22.22 6.55107
22.26 6.65892
22.3 6.77282
22.34 6.72695
22.38 6.70996
22.42 6.71792
22.46 6.73557
22.5 6.82678
22.54 7.16245
22.58 7.05532
22.62 6.94616
22.66 6.89723
22.7 6.76983
22.74 6.82799
22.78 6.90694
22.82 6.91713
22.86 6.90723
22.9 6.92014
22.94 6.95618
22.98 6.98692
23.02 6.87713
23.06 7.05361
23.1 7.12966
23.14 6.94809
23.18 7.06206
23.22 7.07099
23.26 7.27271
23.3 7.09139
23.34 7.02232
23.38 6.99267
23.42 7.10478
23.46 7.05984
23.5 7.09269
23.54 7.00398
23.58 7.06374
23.62 7.19349
23.66 7.20487
23.7 7.12544
23.74 7.08563
23.78 7.1673
23.82 7.19646
23.86 7.11197
23.9 7.12161
23.94 7.10181
23.98 7.04437
24.02 7.14499
24.06 7.18952
24.1 7.16034
24.14 7.1669
24.18 7.03763
24.22 7.07496
24.26 7.17076
24.3 7.19978
24.34 7.15702
24.38 7.10284
24.42 7.12292
24.46 7.20941
24.5 7.19386
24.54 7.23166
24.58 7.19651
24.62 7.08359
24.66 7.0648
24.7 7.02233
24.74 7.01269
24.78 7.09334
24.82 7.0712
24.86 7.08864
24.9 7.2327
24.94 7.18845
24.98 7.13875
25.02 7.09076
25.06 7.11322
25.1 7.18672
25.14 7.18827
25.18 7.1915
25.22 7.22972
25.26 7.25434
25.3 7.28513
25.34 7.89306
25.38 8.5522
25.42 9.01193
25.46 8.89526
25.5 8.55087
25.54 8.00007
25.58 7.57082
25.62 7.33856
25.66 7.29074
25.7 7.29535
25.74 7.33135
25.78 7.30543
25.82 7.34135
25.86 7.42925
25.9 7.45351
25.94 7.60527
25.98 7.54127
26.02 7.28648
26.06 7.38597
26.1 7.36017
26.14 7.40251
26.18 7.2064
26.22 7.31329
26.26 7.24877
26.3 7.14291
26.34 7.23958
26.38 7.19247
26.42 7.22054
26.46 7.21098
26.5 7.25134
26.54 7.19253
26.58 7.18284
26.62 7.15441
26.66 7.22704
26.7 7.23956
26.74 7.06544
26.78 7.14026
26.82 7.11164
26.86 7.16104
26.9 7.03915
26.94 7.08126
26.98 7.12621
27.02 7.08426
27.06 7.2293
27.1 7.07223
27.14 7.22849
27.18 7.10171
27.22 7.12334
27.26 7.21856
27.3 7.11172
27.34 7.09445
27.38 7.17568
27.42 7.17849
27.46 7.23365
27.5 7.28779
27.54 7.2172
27.58 7.13278
27.62 7.27477
27.66 7.26225
27.7 7.19192
27.74 7.1868
27.78 7.27521
27.82 7.19132
27.86 7.1703
27.9 7.24488
27.94 7.10236
27.98 7.239
28.02 7.2495
28.06 7.0678
28.1 7.06115
28.14 7.20024
28.18 7.2351
28.22 7.09792
28.26 7.15599
28.3 7.16484
28.34 7.19867
28.38 7.24467
28.42 7.12927
28.46 7.19813
28.5 7.32203
28.54 7.28667
28.58 7.08363
28.62 7.08593
28.66 7.17472
28.7 7.32989
28.74 7.30843
28.78 7.19757
28.82 7.2789
28.86 7.48282
28.9 7.39684
28.94 7.33833
28.98 7.40056
29.02 7.46539
29.06 7.63614
29.1 8.00254
29.14 8.029
29.18 8.13761
29.22 8.57419
29.26 9.16401
29.3 11.7836
29.34 16.7462
29.38 23.1758
29.42 27.2438
29.46 26.818
29.5 23.37
29.54 17.1148
29.58 12.9477
29.62 9.62928
29.66 8.16258
29.7 7.61362
29.74 7.40508
29.78 7.18809
29.82 7.11353
29.86 7.04038
29.9 7.07626
29.94 7.18989
29.98 7.18282
30.02 7.03952
30.06 7.02489
30.1 7.08963
30.14 7.09556
30.18 7.02846
30.22 7.08283
30.26 7.03482
30.3 6.90896
30.34 6.90231
30.38 7.00575
30.42 7.02519
30.46 6.86412
30.5 6.84924
30.54 6.87295
30.58 6.89947
30.62 6.8076
30.66 6.74722
30.7 6.82365
30.74 6.83749
30.78 6.80259
30.82 6.67238
30.86 6.73381
30.9 6.73056
30.94 6.76398
30.98 6.78825
31.02 6.87301
31.06 6.87993
31.1 6.76313
31.14 6.58662
31.18 6.55077
31.22 6.67496
31.26 6.73332
31.3 6.68717
31.34 6.74032
31.38 6.77769
31.42 6.68035
31.46 6.6634
31.5 6.66542
31.54 6.65523
31.58 6.76616
31.62 6.70068
31.66 6.69968
31.7 6.76181
31.74 6.6707
31.78 6.59432
31.82 6.57271
31.86 6.61658
31.9 6.62453
31.94 6.60247
31.98 6.61265
32.02 6.60533
32.06 6.66758
32.1 6.63895
32.14 6.60323
32.18 6.58362
32.22 6.53444
32.26 6.57422
32.3 6.5743
32.34 6.55516
32.38 6.55283
32.42 6.51412
32.46 6.50511
32.5 6.66778
32.54 6.6365
32.58 6.49681
32.62 6.65238
32.66 6.64576
32.7 6.65437
32.74 6.71675
32.78 7.00647
32.82 7.3699
32.86 8.81649
32.9 10.365
32.94 11.8371
32.98 12.3531
33.02 12.046
33.06 10.9272
33.1 9.32997
33.14 8.0398
33.18 7.20155
33.22 6.63806
33.26 6.42136
33.3 6.41742
33.34 6.34561
33.38 6.32897
33.42 6.29813
33.46 6.24701
33.5 6.3824
33.54 6.50198
33.58 6.37359
33.62 6.19394
33.66 6.33166
33.7 6.24935
33.74 6.10281
33.78 6.1875
33.82 6.11335
33.86 6.03241
33.9 5.98704
33.94 6.08118
33.98 6.17713
34.02 6.2164
34.06 6.09022
34.1 6.05785
34.14 6.09262
34.18 6.05368
34.22 6.03369
34.26 6.14715
34.3 6.27338
34.34 6.24859
34.38 6.30782
34.42 6.18611
34.46 6.13612
34.5 6.21594
34.54 6.13462
34.58 5.99799
34.62 5.90243
34.66 5.9597
34.7 5.97496
34.74 5.87461
34.78 5.87354
34.82 5.85897
34.86 5.99422
34.9 5.96116
34.94 5.83033
34.98 5.87894
35.02 5.91038
35.06 5.72973
35.1 5.82123
35.14 5.7502
35.18 5.69464
35.22 5.67465
35.26 5.72607
35.3 5.80161
35.34 5.79026
35.38 5.70416
35.42 5.62099
35.46 5.83193
35.5 5.806
35.54 5.79687
35.58 5.69271
35.62 5.77612
35.66 5.75726
35.7 5.6649
35.74 5.61488
35.78 5.74375
35.82 5.75073
35.86 5.69443
35.9 5.89014
35.94 5.84091
35.98 6.27664
36.02 7.21668
36.06 7.82627
36.1 7.86285
36.14 7.57524
36.18 6.92164
36.22 6.23618
36.26 5.89448
36.3 5.6086
36.34 5.6372
36.38 5.64869
36.42 5.50464
36.46 5.45492
36.5 5.3741
36.54 5.52117
36.58 5.518
36.62 5.56574
36.66 5.40347
36.7 5.32272
36.74 5.37925
36.78 5.41294
36.82 5.28911
36.86 5.37975
36.9 5.46387
36.94 5.37027
36.98 5.37372
37.02 5.27004
37.06 5.20118
37.1 5.13575
37.14 5.2976
37.18 5.40681
37.22 5.20901
37.26 5.29656
37.3 5.25632
37.34 5.12743
37.38 5.15801
37.42 5.14631
37.46 5.15323
37.5 5.18709
37.54 5.23663
37.58 5.20029
37.62 5.22902
37.66 5.18847
37.7 5.2485
37.74 5.19914
37.78 5.09882
37.82 5.04581
37.86 5.11257
37.9 5.14422
37.94 5.14804
37.98 5.08489
38.02 5.0774
38.06 5.10857
38.1 5.19582
38.14 5.13779
38.18 5.00261
38.22 4.96786
38.26 5.03346
38.3 5.177
38.34 4.98473
38.38 4.976
38.42 5.06524
38.46 5.15437
38.5 5.08681
38.54 5.06468
38.58 5.14379
38.62 5.08537
38.66 5.17863
38.7 5.16832
38.74 5.23322
38.78 5.17331
38.82 5.34273
38.86 5.49449
38.9 5.52953
38.94 5.75902
38.98 6.17457
39.02 6.86342
39.06 7.19103
39.1 7.77184
39.14 7.94519
39.18 7.70387
39.22 7.24792
39.26 6.65302
39.3 6.44749
39.34 5.86769
39.38 5.51098
39.42 5.39071
39.46 5.20631
39.5 5.05841
39.54 4.97413
39.58 5.00133
39.62 5.02069
39.66 4.98583
39.7 5.06202
39.74 5.06674
39.78 5.01706
39.82 5.00296
39.86 4.9722
39.9 4.98558
39.94 5.08991
39.98 5.11215
40.02 5.038
40.06 4.94428
40.1 4.9996
40.14 4.88957
40.18 4.83979
40.22 4.81202
40.26 4.78701
40.3 4.89905
40.34 4.9599
40.38 4.9261
40.42 4.82044
40.46 4.84134
40.5 4.82417
40.54 4.8828
40.58 4.95505
40.62 4.87779
40.66 4.90128
40.7 4.82153
40.74 4.82136
40.78 4.84047
40.82 4.83806
40.86 5.00159
40.9 4.83698
40.94 4.76026
40.98 4.81302
41.02 4.86582
41.06 4.80224
41.1 4.75674
41.14 4.79947
41.18 4.91898
41.22 4.84103
41.26 4.8069
41.3 4.81899
41.34 4.81948
41.38 4.96928
41.42 4.90803
41.46 4.78093
41.5 4.91342
41.54 4.99282
41.58 5.11697
41.62 5.08416
41.66 5.17502
41.7 5.22751
41.74 5.53608
41.78 6.39466
41.82 7.68909
41.86 8.40936
41.9 8.60523
41.94 8.08991
41.98 7.45232
42.02 6.6381
42.06 5.97483
42.1 5.47369
42.14 5.14781
42.18 5.03294
42.22 5.03045
42.26 4.85895
42.3 4.81455
42.34 4.87685
42.38 4.89676
42.42 4.87279
42.46 4.87312
42.5 4.79724
42.54 4.82685
42.58 4.75274
42.62 4.88332
42.66 4.81817
42.7 4.83673
42.74 4.92761
42.78 4.87324
42.82 4.80235
42.86 4.60543
42.9 4.81342
42.94 4.86453
42.98 4.90812
43.02 4.8765
43.06 4.80412
43.1 4.79431
43.14 4.89332
43.18 4.88104
43.22 4.81598
43.26 4.79643
43.3 4.76178
43.34 4.79169
43.38 4.76966
43.42 4.85001
43.46 4.8485
43.5 4.76917
43.54 4.78548
43.58 4.80479
43.62 4.78694
43.66 4.69538
43.7 4.74198
43.74 4.6762
43.78 4.78255
43.82 4.78949
43.86 4.81075
43.9 4.66967
43.94 4.75326
43.98 4.78763
44.02 4.84094
44.06 4.82228
44.1 4.83357
44.14 4.88824
44.18 4.92677
44.22 4.88341
44.26 4.92522
44.3 4.9369
44.34 5.06097
44.38 5.19965
44.42 5.57682
44.46 6.25708
44.5 6.80847
44.54 7.30014
44.58 7.06614
44.62 6.50998
44.66 5.92933
44.7 5.41221
44.74 5.23167
44.78 5.07441
44.82 4.98338
44.86 4.85417
44.9 4.78576
44.94 4.79835
44.98 4.86995
45.02 4.88835
45.06 4.84282
45.1 4.72181
45.14 4.63487
45.18 4.68865
45.22 4.67576
45.26 4.80265
45.3 4.736
45.34 4.72582
45.38 4.68999
45.42 4.59242
45.46 4.5536
45.5 4.62509
45.54 4.62876
45.58 4.6741
45.62 4.69825
45.66 4.61566
45.7 4.56898
45.74 4.6254
45.78 4.64963
45.82 4.66754
45.86 4.597
45.9 4.71222
45.94 4.73993
45.98 4.53155
46.02 4.58863
46.06 4.5802
46.1 4.48047
46.14 4.66545
46.18 4.98288
46.22 5.26156
46.26 5.75096
46.3 6.094
46.34 6.17759
46.38 5.87606
46.42 5.67418
46.46 5.48841
46.5 5.09431
46.54 4.94244
46.58 4.79237
46.62 4.56445
46.66 4.47728
46.7 4.49524
46.74 4.56023
46.78 4.60756
46.82 4.74912
46.86 4.6962
46.9 4.68918
46.94 4.77403
46.98 4.76989
47.02 4.83023
47.06 4.75917
47.1 4.60997
47.14 4.56765
47.18 4.55972
47.22 4.51343
47.26 4.64415
47.3 4.50682
47.34 4.37566
47.38 4.3292
47.42 4.30871
47.46 4.26542
47.5 4.39778
47.54 4.42899
47.58 4.52564
47.62 4.61306
47.66 4.45086
47.7 4.3731
47.74 4.32667
47.78 4.371
47.82 4.63546
47.86 4.56977
47.9 4.36553
47.94 4.35819
47.98 4.39456
48.02 4.31192
48.06 4.47937
48.1 4.35302
48.14 4.09022
48.18 4.13957
48.22 4.40147
48.26 4.43437
48.3 4.31169
48.34 4.37113
48.38 4.5221
48.42 4.43953
48.46 4.36759
48.5 4.34448
48.54 4.28952
48.58 4.26713
48.62 4.17201
48.66 4.2542
48.7 4.33948
48.74 4.43448
48.78 4.3187
48.82 4.22861
48.86 4.32334
48.9 4.33996
48.94 4.28747
48.98 4.27394
49.02 4.40224
49.06 4.30676
49.1 4.19988
49.14 4.23652
49.18 4.23919
49.22 4.18421
49.26 4.25578
49.3 4.18481
49.34 4.32765
49.38 4.35123
49.42 4.20463
49.46 4.24997
49.5 4.3045
49.54 4.3457
49.58 4.35547
49.62 4.35078
49.66 4.28779
49.7 4.25949
49.74 4.25304
49.78 4.17881
49.82 4.22093
49.86 4.20941
49.9 4.27055
49.94 4.2709
49.98 4.32269
50.02 4.25454
50.06 4.23076
50.1 4.11024
50.14 4.1774
50.18 4.18267
50.22 4.2409
50.26 4.30887
50.3 4.16775
50.34 4.16693
50.38 4.25162
50.42 4.3303
50.46 4.23119
50.5 4.14377
50.54 4.23859
50.58 4.23172
50.62 4.12798
50.66 4.18253
50.7 4.19031
50.74 4.28255
50.78 4.21174
50.82 4.29021
50.86 4.13948
50.9 4.12062
50.94 4.18868
50.98 4.25722
51.02 4.23725
51.06 4.18558
51.1 4.12568
51.14 4.22734
51.18 4.17727
51.22 4.12065
51.26 4.28609
51.3 4.2256
51.34 4.25249
51.38 4.34209
51.42 4.21333
51.46 4.28465
51.5 4.38761
51.54 4.15872
51.58 4.27519
51.62 4.38709
51.66 4.64432
51.7 4.77098
51.74 4.85503
51.78 4.8533
51.82 4.82837
51.86 4.85419
51.9 4.78586
51.94 4.61584
51.98 4.44047
52.02 4.23967
52.06 4.20063
52.1 4.28825
52.14 4.17065
52.18 4.19522
52.22 4.36347
52.26 4.24419
52.3 4.2097
52.34 4.17163
52.38 4.15308
52.42 4.26107
52.46 4.26949
52.5 4.34844
52.54 4.31079
52.58 4.32961
52.62 4.45689
52.66 4.42745
52.7 4.5038
52.74 4.67876
52.78 4.73248
52.82 4.87667
52.86 4.92252
52.9 4.88957
52.94 4.90069
52.98 4.66264
53.02 4.57036
53.06 4.47123
53.1 4.40674
53.14 4.41206
53.18 4.25746
53.22 4.23547
53.26 4.21112
53.3 4.18967
53.34 4.22313
53.38 4.14231
53.42 4.15961
53.46 4.18447
53.5 4.20766
53.54 4.25384
53.58 4.24227
53.62 4.21369
53.66 4.11002
53.7 4.12553
53.74 3.97857
53.78 4.14819
53.82 4.16896
53.86 4.10253
53.9 4.18023
53.94 4.16647
53.98 4.17822
54.02 4.23684
54.06 4.30651
54.1 4.42437
54.14 4.36087
54.18 4.21819
54.22 4.15195
54.26 4.23776
54.3 4.21809
54.34 4.19936
54.38 4.20956
54.42 4.10822
54.46 4.15707
54.5 4.07369
54.54 3.99721
54.58 4.10686
54.62 4.19898
54.66 4.0868
54.7 4.09431
54.74 4.1396
54.78 4.27092
54.82 4.19673
54.86 4.24062
54.9 4.12638
54.94 4.01118
54.98 4.13684
55.02 4.27327
55.06 4.17281
55.1 4.17785
55.14 4.04837
55.18 4.02248
55.22 4.06064
55.26 4.15919
55.3 4.10313
55.34 3.96754
55.38 4.05313
55.42 4.22615
55.46 4.14624
55.5 4.26804
55.54 4.51811
55.58 4.44055
55.62 4.44958
55.66 4.47238
55.7 4.33846
55.74 4.30256
55.78 4.35987
55.82 4.28016
55.86 4.22185
55.9 4.15424
55.94 4.16853
55.98 4.37175
56.02 4.35672
56.06 4.42189
56.1 4.31125
56.14 4.44166
56.18 4.66834
56.22 4.81227
56.26 4.92076
56.3 4.84314
56.34 4.61446
56.38 4.47954
56.42 4.64296
56.46 4.93574
56.5 4.62407
56.54 4.81457
56.58 5.19052
56.62 4.93248
56.66 5.27029
56.7 4.93182
56.74 4.91095
56.78 5.25612
56.82 5.84499
56.86 6.49368
56.9 4.38832