File: data/XRD_data/2018_8-7XRD/2018_8-7 FAGACs_2p5FASCN_2p5PEAI001_exported.xy
'Id: "" Comment: "Integrate frame 2018_8-7 FAGACs_2p5FASCN_2p5PEAI001.gfrmwith cursor Full Frame Cursor #4" Operator: "MAF user" Anode: "Cu" Scantype: "TwoTheta" TimePerStep: "90"
10.74 6.98285
10.78 6.69427
10.82 6.15118
10.86 5.64674
10.9 5.31726
10.94 5.31039
10.98 5.07592
11.02 4.82338
11.06 5.09733
11.1 4.9911
11.14 4.95965
11.18 4.97955
11.22 4.92914
11.26 4.93908
11.3 4.89462
11.34 4.84091
11.38 4.85446
11.42 4.78488
11.46 4.96341
11.5 4.79882
11.54 4.76482
11.58 4.85149
11.62 4.83397
11.66 4.64891
11.7 4.75493
11.74 4.66089
11.78 4.64184
11.82 4.61051
11.86 4.71758
11.9 4.6991
11.94 4.64914
11.98 4.79836
12.02 4.75845
12.06 4.79571
12.1 4.8675
12.14 4.87204
12.18 4.80187
12.22 4.75687
12.26 4.83092
12.3 4.78779
12.34 4.79415
12.38 4.52966
12.42 4.67214
12.46 4.72778
12.5 4.66571
12.54 4.68643
12.58 4.77778
12.62 4.80474
12.66 4.79469
12.7 4.69998
12.74 4.68207
12.78 4.69245
12.82 4.68943
12.86 4.63501
12.9 4.80943
12.94 4.73286
12.98 4.67602
13.02 4.68768
13.06 4.68095
13.1 4.71199
13.14 4.68317
13.18 4.73014
13.22 4.73752
13.26 4.72926
13.3 4.7675
13.34 4.81741
13.38 4.8253
13.42 4.72879
13.46 4.66904
13.5 4.68378
13.54 4.73554
13.58 4.81573
13.62 4.86266
13.66 4.83
13.7 4.85144
13.74 4.95296
13.78 4.8177
13.82 4.73701
13.86 4.8691
13.9 4.80438
13.94 4.9459
13.98 5.04317
14.02 5.0692
14.06 5.06872
14.1 4.97146
14.14 5.04532
14.18 5.10603
14.22 5.30521
14.26 5.26166
14.3 5.49947
14.34 5.77228
14.38 5.71978
14.42 5.80536
14.46 6.302
14.5 6.6617
14.54 7.85562
14.58 12.854
14.62 22.1759
14.66 64.0438
14.7 99.6202
14.74 102.167
14.78 66.6664
14.82 30.1921
14.86 16.6349
14.9 8.25745
14.94 6.71155
14.98 6.12634
15.02 5.61449
15.06 5.5503
15.1 5.45767
15.14 5.29091
15.18 5.24946
15.22 5.24074
15.26 5.08559
15.3 4.97095
15.34 4.92157
15.38 4.90482
15.42 4.94129
15.46 4.9712
15.5 4.97433
15.54 4.93663
15.58 4.90729
15.62 4.91295
15.66 4.94795
15.7 4.95237
15.74 4.82147
15.78 4.86267
15.82 4.85092
15.86 4.94848
15.9 4.92809
15.94 4.87933
15.98 4.91838
16.02 4.90012
16.06 4.92715
16.1 4.87488
16.14 4.96239
16.18 5.02213
16.22 4.98623
16.26 4.88875
16.3 4.89003
16.34 4.93113
16.38 4.97641
16.42 4.99436
16.46 4.99215
16.5 4.90797
16.54 4.84907
16.58 4.90797
16.62 4.79864
16.66 4.94166
16.7 5.08146
16.74 4.9948
16.78 4.96781
16.82 4.89909
16.86 4.96076
16.9 4.99721
16.94 5.01092
16.98 4.98815
17.02 5.00295
17.06 4.97224
17.1 5.09338
17.14 5.01942
17.18 5.0729
17.22 5.1712
17.26 5.13094
17.3 5.14925
17.34 5.1435
17.38 5.17465
17.42 5.16341
17.46 5.20569
17.5 5.12433
17.54 5.19408
17.58 5.26866
17.62 5.17143
17.66 5.16294
17.7 5.00308
17.74 5.12993
17.78 5.16386
17.82 5.18996
17.86 5.18911
17.9 5.24422
17.94 5.21667
17.98 5.27443
18.02 5.34004
18.06 5.27394
18.1 5.25932
18.14 5.26045
18.18 5.24953
18.22 5.33283
18.26 5.38437
18.3 5.37402
18.34 5.23785
18.38 5.21961
18.42 5.26947
18.46 5.2711
18.5 5.37174
18.54 5.45823
18.58 5.5018
18.62 5.42024
18.66 5.49868
18.7 5.48286
18.74 5.34897
18.78 5.42379
18.82 5.37585
18.86 5.39835
18.9 5.53281
18.94 5.48866
18.98 5.49131
19.02 5.62005
19.06 5.5337
19.1 5.60994
19.14 5.60083
19.18 5.58477
19.22 5.65949
19.26 5.65743
19.3 5.65993
19.34 5.75174
19.38 5.73087
19.42 5.80027
19.46 5.73667
19.5 5.7134
19.54 5.78631
19.58 5.78717
19.62 5.83483
19.66 5.94125
19.7 5.91865
19.74 5.77333
19.78 5.8796
19.82 5.91131
19.86 5.97252
19.9 6.02866
19.94 5.99102
19.98 5.91343
20.02 5.97244
20.06 6.14028
20.1 6.16341
20.14 6.09444
20.18 6.06809
20.22 6.01109
20.26 6.0044
20.3 6.2379
20.34 6.17791
20.38 6.1489
20.42 6.27271
20.46 6.20217
20.5 6.21163
20.54 6.33379
20.58 6.42054
20.62 6.36933
20.66 6.70535
20.7 7.52055
20.74 8.88593
20.78 10.2282
20.82 10.7589
20.86 10.9409
20.9 10.4411
20.94 9.77857
20.98 8.60125
21.02 7.67316
21.06 7.04802
21.1 6.72809
21.14 6.49872
21.18 6.6378
21.22 6.54783
21.26 6.50093
21.3 6.53863
21.34 6.58011
21.38 6.65913
21.42 6.69253
21.46 6.75732
21.5 6.64959
21.54 6.69235
21.58 6.67457
21.62 6.6507
21.66 6.72223
21.7 6.76477
21.74 6.77129
21.78 6.69285
21.82 6.73532
21.86 6.77902
21.9 6.68809
21.94 6.6867
21.98 6.89381
22.02 6.7813
22.06 6.73352
22.1 6.83029
22.14 7.00695
22.18 7.00834
22.22 6.92732
22.26 6.89718
22.3 6.94594
22.34 7.0414
22.38 7.0983
22.42 6.95542
22.46 7.0399
22.5 7.084
22.54 7.19844
22.58 7.1301
22.62 7.14582
22.66 7.28884
22.7 7.37794
22.74 7.46398
22.78 7.43627
22.82 7.22454
22.86 7.16257
22.9 7.12926
22.94 7.14246
22.98 7.26376
23.02 7.21627
23.06 7.25103
23.1 7.12323
23.14 7.16869
23.18 7.19813
23.22 7.30367
23.26 7.22475
23.3 7.23222
23.34 7.2894
23.38 7.22165
23.42 7.2992
23.46 7.31261
23.5 7.3185
23.54 7.36328
23.58 7.35042
23.62 7.28961
23.66 7.28935
23.7 7.2718
23.74 7.3131
23.78 7.23047
23.82 7.34103
23.86 7.16105
23.9 7.39783
23.94 7.41259
23.98 7.29391
24.02 7.36055
24.06 7.38971
24.1 7.33024
24.14 7.24511
24.18 7.14719
24.22 7.21218
24.26 7.34899
24.3 7.16273
24.34 7.27637
24.38 7.17982
24.42 7.33895
24.46 7.39885
24.5 7.40088
24.54 7.45898
24.58 7.20385
24.62 7.23564
24.66 7.36308
24.7 7.33594
24.74 7.32407
24.78 7.40521
24.82 7.42864
24.86 7.34356
24.9 7.40785
24.94 7.4419
24.98 7.27688
25.02 7.27575
25.06 7.35226
25.1 7.45072
25.14 7.58182
25.18 7.42332
25.22 7.4727
25.26 7.97084
25.3 8.37453
25.34 8.66772
25.38 8.54319
25.42 8.17217
25.46 7.76916
25.5 7.50895
25.54 7.3868
25.58 7.40852
25.62 7.33027
25.66 7.31788
25.7 7.25582
25.74 7.20477
25.78 7.26642
25.82 7.37888
25.86 7.34156
25.9 7.36247
25.94 7.4026
25.98 7.39979
26.02 7.33498
26.06 7.25781
26.1 7.15581
26.14 7.16821
26.18 7.33732
26.22 7.4028
26.26 7.40394
26.3 7.26314
26.34 7.26602
26.38 7.21811
26.42 7.20116
26.46 7.27765
26.5 7.33352
26.54 7.31906
26.58 7.29579
26.62 7.47763
26.66 7.39855
26.7 7.23151
26.74 7.30136
26.78 7.41326
26.82 7.47556
26.86 7.42899
26.9 7.40178
26.94 7.37689
26.98 7.26554
27.02 7.2308
27.06 7.31461
27.1 7.35019
27.14 7.3794
27.18 7.39093
27.22 7.33129
27.26 7.50429
27.3 7.36546
27.34 7.34105
27.38 7.41134
27.42 7.35821
27.46 7.43769
27.5 7.45956
27.54 7.32195
27.58 7.32205
27.62 7.39756
27.66 7.46839
27.7 7.4854
27.74 7.4415
27.78 7.36985
27.82 7.41098
27.86 7.48883
27.9 7.4466
27.94 7.47608
27.98 7.5355
28.02 7.45352
28.06 7.31312
28.1 7.50614
28.14 7.69866
28.18 7.56334
28.22 7.44294
28.26 7.54975
28.3 7.57347
28.34 7.559
28.38 7.57856
28.42 7.60504
28.46 7.54905
28.5 7.69528
28.54 7.75833
28.58 7.88586
28.62 7.88675
28.66 7.84654
28.7 7.80354
28.74 7.86097
28.78 7.92816
28.82 8.04694
28.86 8.13454
28.9 8.19133
28.94 8.35214
28.98 8.77333
29.02 8.9828
29.06 9.64559
29.1 10.7783
29.14 12.4277
29.18 19.6514
29.22 34.6711
29.26 52.807
29.3 70.6682
29.34 72.2308
29.38 65.4181
29.42 45.0119
29.46 31.9248
29.5 19.5668
29.54 12.4556
29.58 10.2287
29.62 8.90044
29.66 8.35706
29.7 8.1984
29.74 7.98046
29.78 7.81547
29.82 7.86622
29.86 7.81414
29.9 7.60534
29.94 7.53699
29.98 7.63835
30.02 7.64694
30.06 7.57204
30.1 7.46638
30.14 7.37929
30.18 7.29737
30.22 7.36641
30.26 7.19808
30.3 7.01854
30.34 7.13475
30.38 7.15106
30.42 7.21984
30.46 7.26886
30.5 7.17755
30.54 7.02023
30.58 7.1557
30.62 7.07973
30.66 7.1834
30.7 7.27262
30.74 7.1159
30.78 7.02968
30.82 7.0667
30.86 6.93404
30.9 6.85236
30.94 6.94656
30.98 7.04231
31.02 7.09353
31.06 7.06418
31.1 7.15492
31.14 6.97258
31.18 7.00817
31.22 6.89761
31.26 6.92081
31.3 6.80422
31.34 6.81672
31.38 6.91815
31.42 7.00388
31.46 6.93357
31.5 6.93139
31.54 6.95278
31.58 6.91314
31.62 6.89955
31.66 6.93398
31.7 6.84403
31.74 6.74866
31.78 6.68791
31.82 6.71579
31.86 6.79593
31.9 6.8843
31.94 6.86578
31.98 6.89319
32.02 6.78686
32.06 6.70128
32.1 6.71052
32.14 6.73443
32.18 6.77442
32.22 6.68553
32.26 6.55973
32.3 6.57035
32.34 6.69841
32.38 6.77592
32.42 6.71812
32.46 6.76985
32.5 6.63522
32.54 6.75505
32.58 6.72503
32.62 6.97184
32.66 7.26773
32.7 7.90461
32.74 9.40298
32.78 11.3409
32.82 12.966
32.86 13.592
32.9 13.237
32.94 11.9093
32.98 10.3202
33.02 8.78006
33.06 7.74065
33.1 7.09664
33.14 6.6732
33.18 6.63083
33.22 6.56254
33.26 6.39118
33.3 6.35416
33.34 6.48948
33.38 6.48644
33.42 6.31962
33.46 6.46974
33.5 6.50057
33.54 6.74429
33.58 6.64011
33.62 6.43714
33.66 6.48819
33.7 6.46512
33.74 6.42894
33.78 6.41094
33.82 6.39439
33.86 6.31024
33.9 6.3704
33.94 6.37789
33.98 6.32721
34.02 6.27235
34.06 6.35438
34.1 6.34731
34.14 6.24889
34.18 6.21793
34.22 6.22043
34.26 6.24429
34.3 6.10931
34.34 6.18449
34.38 6.20836
34.42 6.21568
34.46 6.14386
34.5 6.2113
34.54 6.31831
34.58 6.26962
34.62 6.26303
34.66 6.19741
34.7 6.19244
34.74 6.24425
34.78 6.20875
34.82 6.12178
34.86 6.13662
34.9 6.11644
34.94 6.21095
34.98 6.19345
35.02 6.10711
35.06 6.14048
35.1 6.18717
35.14 6.2234
35.18 6.15537
35.22 6.19029
35.26 6.11625
35.3 5.95072
35.34 6.03256
35.38 6.0475
35.42 6.14642
35.46 6.14383
35.5 6.1509
35.54 6.03539
35.58 5.95777
35.62 6.0468
35.66 6.01631
35.7 5.97537
35.74 6.17359
35.78 6.11781
35.82 6.20479
35.86 6.60025
35.9 6.92509
35.94 7.30126
35.98 7.3425
36.02 7.07901
36.06 6.70537
36.1 6.39958
36.14 5.99129
36.18 5.92056
36.22 5.82942
36.26 5.79554
36.3 5.79759
36.34 5.84056
36.38 5.69612
36.42 5.76926
36.46 5.79037
36.5 5.69048
36.54 5.7185
36.58 5.728
36.62 5.73848
36.66 5.71391
36.7 5.59081
36.74 5.65514
36.78 5.63503
36.82 5.68397
36.86 5.7035
36.9 5.58162
36.94 5.48475
36.98 5.56398
37.02 5.55323
37.06 5.57351
37.1 5.6628
37.14 5.60273
37.18 5.57391
37.22 5.62546
37.26 5.50492
37.3 5.38469
37.34 5.47357
37.38 5.51794
37.42 5.66646
37.46 5.45752
37.5 5.38115
37.54 5.45194
37.58 5.45284
37.62 5.47132
37.66 5.58044
37.7 5.52676
37.74 5.40056
37.78 5.31607
37.82 5.29559
37.86 5.32804
37.9 5.3425
37.94 5.43128
37.98 5.40393
38.02 5.43555
38.06 5.52392
38.1 5.36669
38.14 5.41702
38.18 5.38583
38.22 5.30959
38.26 5.24506
38.3 5.21681
38.34 5.23981
38.38 5.20852
38.42 5.35629
38.46 5.36898
38.5 5.223
38.54 5.25109
38.58 5.2643
38.62 5.22052
38.66 5.26905
38.7 5.28137
38.74 5.17928
38.78 5.20203
38.82 5.22725
38.86 5.14061
38.9 5.17727
38.94 5.13541
38.98 5.02753
39.02 5.16268
39.06 5.14924
39.1 5.06157
39.14 5.06632
39.18 5.13113
39.22 5.08702
39.26 5.14923
39.3 5.02647
39.34 4.93127
39.38 5.0707
39.42 5.05425
39.46 5.13488
39.5 5.12518
39.54 5.17238
39.58 5.09685
39.62 5.08593
39.66 4.98258
39.7 5.0928
39.74 5.22123
39.78 5.23993
39.82 5.07768
39.86 5.22473
39.9 5.14193
39.94 4.97601
39.98 5.19725
40.02 5.22404
40.06 5.14262
40.1 5.09617
40.14 5.04767
40.18 5.24591
40.22 5.1172
40.26 5.00175
40.3 5.02302
40.34 4.95526
40.38 5.06894
40.42 4.97134
40.46 5.06471
40.5 5.14682
40.54 5.04613
40.58 4.98546
40.62 4.94472
40.66 4.99719
40.7 5.06356
40.74 5.13691
40.78 5.07931
40.82 5.08206
40.86 4.99912
40.9 4.96996
40.94 5.16176
40.98 5.00824
41.02 5.12087
41.06 5.06034
41.1 5.00428
41.14 5.21192
41.18 5.17268
41.22 5.06781
41.26 5.09478
41.3 5.03131
41.34 5.11498
41.38 5.15396
41.42 5.18835
41.46 5.26684
41.5 5.43103
41.54 5.55227
41.58 5.84917
41.62 6.35585
41.66 6.85907
41.7 7.46934
41.74 7.65256
41.78 7.45588
41.82 7.05365
41.86 6.54706
41.9 6.0824
41.94 5.74608
41.98 5.48412
42.02 5.31886
42.06 5.18595
42.1 5.06312
42.14 5.02798
42.18 4.9253
42.22 5.06317
42.26 5.07045
42.3 5.0384
42.34 5.09172
42.38 5.07635
42.42 5.08955
42.46 5.02371
42.5 4.92543
42.54 5.04593
42.58 4.96415
42.62 4.85738
42.66 5.02789
42.7 5.0077
42.74 4.92206
42.78 5.07185
42.82 5.20235
42.86 5.08157
42.9 4.96659
42.94 5.0633
42.98 5.03386
43.02 4.94863
43.06 4.89319
43.1 4.95589
43.14 4.85356
43.18 4.91372
43.22 5.05497
43.26 5.07163
43.3 4.91173
43.34 5.00238
43.38 5.00015
43.42 5.07693
43.46 5.03466
43.5 4.97086
43.54 4.98172
43.58 5.00923
43.62 4.95796
43.66 4.89875
43.7 4.9534
43.74 5.01327
43.78 5.0354
43.82 4.97212
43.86 5.00308
43.9 5.02882
43.94 4.87189
43.98 4.86563
44.02 4.9169
44.06 4.89497
44.1 5.03982
44.14 5.03942
44.18 5.19386
44.22 5.54227
44.26 6.10538
44.3 6.79143
44.34 7.1037
44.38 7.4256
44.42 7.112
44.46 6.91147
44.5 6.44556
44.54 6.17905
44.58 5.76397
44.62 5.49062
44.66 5.23332
44.7 5.05003
44.74 5.01767
44.78 5.07874
44.82 5.04546
44.86 5.03504
44.9 4.97579
44.94 4.99138
44.98 4.94246
45.02 4.93841
45.06 4.95536
45.1 4.96884
45.14 4.87883
45.18 4.87069
45.22 4.90123
45.26 4.97088
45.3 4.89912
45.34 4.92406
45.38 5.00049
45.42 4.89136
45.46 4.83575
45.5 4.83754
45.54 4.91687
45.58 4.96791
45.62 4.90854
45.66 4.88585
45.7 4.73674
45.74 4.77359
45.78 4.87829
45.82 4.83966
45.86 4.78964
45.9 4.67138
45.94 4.77656
45.98 4.71991
46.02 4.62789
46.06 4.61721
46.1 4.69989
46.14 4.81122
46.18 4.64296
46.22 4.6645
46.26 4.59638
46.3 4.66222
46.34 4.7469
46.38 4.7299
46.42 4.71406
46.46 4.76351
46.5 4.94642
46.54 4.84548
46.58 4.8078
46.62 4.7504
46.66 4.80634
46.7 5.0326
46.74 5.07186
46.78 5.22283
46.82 5.27459
46.86 5.30837
46.9 5.11881
46.94 4.98497
46.98 4.98252
47.02 4.83162
47.06 4.61592
47.1 4.78385
47.14 4.81786
47.18 4.76361
47.22 4.61358
47.26 4.51231
47.3 4.7067
47.34 4.6537
47.38 4.47754
47.42 4.6758
47.46 4.68526
47.5 4.64798
47.54 4.75551
47.58 4.80494
47.62 4.64719
47.66 4.51187
47.7 4.56233
47.74 4.66258
47.78 4.67756
47.82 4.62709
47.86 4.62608
47.9 4.59888
47.94 4.5265
47.98 4.64517
48.02 4.57491
48.06 4.6169
48.1 4.59432
48.14 4.57934
48.18 4.57028
48.22 4.55805
48.26 4.55858
48.3 4.49493
48.34 4.67483
48.38 4.63185
48.42 4.60092
48.46 4.66
48.5 4.69706
48.54 4.61186
48.58 4.62099
48.62 4.61371
48.66 4.59425
48.7 4.55075
48.74 4.63666
48.78 4.54578
48.82 4.50069
48.86 4.66582
48.9 4.6984
48.94 4.52549
48.98 4.51527
49.02 4.68954
49.06 4.62652
49.1 4.65783
49.14 4.59255
49.18 4.55215
49.22 4.50246
49.26 4.4846
49.3 4.64024
49.34 4.49065
49.38 4.65687
49.42 4.53983
49.46 4.44826
49.5 4.47234
49.54 4.42857
49.58 4.44243
49.62 4.46124
49.66 4.53138
49.7 4.61771
49.74 4.65944
49.78 4.5195
49.82 4.48346
49.86 4.46246
49.9 4.51437
49.94 4.40857
49.98 4.44287
50.02 4.40544
50.06 4.45095
50.1 4.48261
50.14 4.47629
50.18 4.46191
50.22 4.46211
50.26 4.48843
50.3 4.49207
50.34 4.38315
50.38 4.33583
50.42 4.27041
50.46 4.37758
50.5 4.37287
50.54 4.40118
50.58 4.46449
50.62 4.47227
50.66 4.37764
50.7 4.54719
50.74 4.43565
50.78 4.32763
50.82 4.4338
50.86 4.45217
50.9 4.50561
50.94 4.42678
50.98 4.36496
51.02 4.48178
51.06 4.47379
51.1 4.38334
51.14 4.45295
51.18 4.63254
51.22 4.50531
51.26 4.28465
51.3 4.32244
51.34 4.37832
51.38 4.35169
51.42 4.54677
51.46 4.72255
51.5 4.84478
51.54 4.91426
51.58 4.92626
51.62 4.89461
51.66 4.9847
51.7 4.8975
51.74 4.7833
51.78 4.60113
51.82 4.58478
51.86 4.5252
51.9 4.50126
51.94 4.40696
51.98 4.39535
52.02 4.46204
52.06 4.4516
52.1 4.38896
52.14 4.42433
52.18 4.39477
52.22 4.49451
52.26 4.49973
52.3 4.47284
52.34 4.42166
52.38 4.43028
52.42 4.40683
52.46 4.38514
52.5 4.37371
52.54 4.27625
52.58 4.2926
52.62 4.48658
52.66 4.517
52.7 4.46379
52.74 4.41946
52.78 4.49631
52.82 4.50542
52.86 4.40354
52.9 4.50634
52.94 4.50074
52.98 4.36915
53.02 4.21947
53.06 4.30567
53.1 4.36708
53.14 4.46104
53.18 4.35749
53.22 4.37297
53.26 4.4038
53.3 4.24502
53.34 4.31235
53.38 4.38171
53.42 4.40776
53.46 4.36392
53.5 4.35415
53.54 4.3534
53.58 4.32225
53.62 4.42277
53.66 4.39453
53.7 4.43954
53.74 4.59215
53.78 4.66919
53.82 4.66685
53.86 4.76354
53.9 4.6129
53.94 4.60844
53.98 4.44483
54.02 4.49686
54.06 4.52961
54.1 4.45831
54.14 4.43104
54.18 4.46465
54.22 4.38876
54.26 4.28824
54.3 4.36196
54.34 4.42958
54.38 4.50915
54.42 4.37781
54.46 4.37989
54.5 4.35774
54.54 4.34418
54.58 4.36979
54.62 4.32904
54.66 4.40284
54.7 4.4779
54.74 4.41825
54.78 4.39648
54.82 4.43856
54.86 4.31912
54.9 4.27165
54.94 4.33183
54.98 4.34023
55.02 4.36177
55.06 4.33484
55.1 4.24854
55.14 4.27934
55.18 4.36684
55.22 4.32616
55.26 4.33206
55.3 4.33377
55.34 4.46937
55.38 4.42624
55.42 4.40433
55.46 4.35192
55.5 4.51351
55.54 4.81539
55.58 4.7821
55.62 4.67035
55.66 4.65601
55.7 4.59379
55.74 4.65586
55.78 4.60818
55.82 4.58434
55.86 4.68708
55.9 4.91702
55.94 4.9994
55.98 5.06238
56.02 4.97136
56.06 5.08061
56.1 5.06384
56.14 4.92609
56.18 4.78874
56.22 4.94369
56.26 4.7345
56.3 4.62949
56.34 4.40479
56.38 4.41769
56.42 5.01387
56.46 4.77736
56.5 4.9983
56.54 5.12152
56.58 4.4789
56.62 4.45782
56.66 4.35887
56.7 4.75448
56.74 4.74366
56.78 5.01767
56.82 6.3681
56.86 6.44917
56.9 3.64048