File: data/XRD_data/2018_8-7XRD/2018_8-7 FAGACs_2p5FASCN001_exported.xy
'Id: "" Comment: "Integrate frame 2018_8-7 FAGACs_2p5FASCN001.gfrmwith cursor Full Frame Cursor #5" Operator: "MAF user" Anode: "Cu" Scantype: "TwoTheta" TimePerStep: "90"
10.74 6.62255
10.78 5.59405
10.82 5.72785
10.86 5.47483
10.9 5.09657
10.94 4.89686
10.98 4.9476
11.02 4.94698
11.06 4.86109
11.1 4.92153
11.14 4.64379
11.18 4.72938
11.22 4.59448
11.26 4.46026
11.3 4.72714
11.34 4.68675
11.38 4.73504
11.42 4.69236
11.46 4.73225
11.5 4.84177
11.54 4.94889
11.58 4.82471
11.62 4.57367
11.66 4.7156
11.7 4.65489
11.74 4.69014
11.78 4.81476
11.82 4.67793
11.86 4.56581
11.9 4.69203
11.94 4.74474
11.98 4.75799
12.02 4.59578
12.06 4.50877
12.1 4.5099
12.14 4.59499
12.18 4.72555
12.22 4.82397
12.26 4.62338
12.3 4.74731
12.34 4.80078
12.38 4.54109
12.42 4.6308
12.46 4.63287
12.5 4.73979
12.54 4.67612
12.58 4.63679
12.62 4.66099
12.66 4.70746
12.7 4.62849
12.74 4.48578
12.78 4.62796
12.82 4.77911
12.86 4.61068
12.9 4.76401
12.94 4.70264
12.98 4.56178
13.02 4.72549
13.06 4.66325
13.1 4.63731
13.14 4.65641
13.18 4.56329
13.22 4.68053
13.26 4.7067
13.3 4.6966
13.34 4.7711
13.38 4.7907
13.42 4.70577
13.46 4.65678
13.5 4.6402
13.54 4.72112
13.58 4.59792
13.62 4.58044
13.66 4.6538
13.7 4.67798
13.74 4.71307
13.78 4.7913
13.82 4.63519
13.86 4.60649
13.9 4.7046
13.94 4.7788
13.98 4.87438
14.02 4.7371
14.06 4.71674
14.1 4.83144
14.14 4.82256
14.18 4.82559
14.22 4.78542
14.26 4.83999
14.3 4.98444
14.34 5.03656
14.38 5.04943
14.42 5.09953
14.46 5.34999
14.5 5.47611
14.54 6.01965
14.58 7.52811
14.62 10.9689
14.66 24.0892
14.7 40.4743
14.74 44.2867
14.78 33.5269
14.82 19.3071
14.86 11.7991
14.9 6.75321
14.94 5.61459
14.98 5.29235
15.02 5.07809
15.06 4.94775
15.1 4.86525
15.14 4.84219
15.18 4.94875
15.22 4.94038
15.26 4.9068
15.3 4.82424
15.34 4.76145
15.38 4.76943
15.42 4.79873
15.46 4.76668
15.5 4.78933
15.54 4.79074
15.58 4.68784
15.62 4.76169
15.66 4.86735
15.7 4.81589
15.74 4.78371
15.78 4.83486
15.82 4.78688
15.86 4.80565
15.9 4.8084
15.94 4.72244
15.98 4.74058
16.02 4.83809
16.06 4.82681
16.1 4.9415
16.14 4.90284
16.18 4.78531
16.22 4.91542
16.26 4.97717
16.3 4.90148
16.34 4.85893
16.38 4.81259
16.42 4.87072
16.46 4.80952
16.5 4.87978
16.54 4.89414
16.58 5.02691
16.62 4.97065
16.66 4.85665
16.7 4.87234
16.74 4.8729
16.78 4.90915
16.82 4.98912
16.86 4.93974
16.9 4.92718
16.94 4.97166
16.98 4.9895
17.02 4.92348
17.06 4.94023
17.1 4.96685
17.14 5.01124
17.18 4.98297
17.22 5.07309
17.26 5.05142
17.3 5.0593
17.34 4.9469
17.38 4.99265
17.42 5.06473
17.46 4.94393
17.5 4.97327
17.54 5.02454
17.58 5.03131
17.62 5.06721
17.66 5.02395
17.7 4.93526
17.74 5.0139
17.78 5.07155
17.82 5.08733
17.86 5.17766
17.9 5.2197
17.94 5.2447
17.98 5.24405
18.02 5.1155
18.06 5.13984
18.1 5.1039
18.14 5.16969
18.18 5.2707
18.22 5.31727
18.26 5.24588
18.3 5.28595
18.34 5.20671
18.38 5.28667
18.42 5.2989
18.46 5.19917
18.5 5.2511
18.54 5.29675
18.58 5.22758
18.62 5.29591
18.66 5.34489
18.7 5.44435
18.74 5.41173
18.78 5.37174
18.82 5.33163
18.86 5.44795
18.9 5.44127
18.94 5.52242
18.98 5.48793
19.02 5.45921
19.06 5.47397
19.1 5.44958
19.14 5.52604
19.18 5.5764
19.22 5.50706
19.26 5.51453
19.3 5.56535
19.34 5.52633
19.38 5.51361
19.42 5.56782
19.46 5.71556
19.5 5.79866
19.54 5.70408
19.58 5.59573
19.62 5.65997
19.66 5.67563
19.7 5.70362
19.74 5.76544
19.78 5.81893
19.82 5.79549
19.86 5.7517
19.9 5.77976
19.94 5.77915
19.98 5.91049
20.02 5.9792
20.06 5.92142
20.1 5.86092
20.14 5.97201
20.18 5.97314
20.22 5.98946
20.26 5.88494
20.3 5.98918
20.34 6.01888
20.38 6.0855
20.42 6.15826
20.46 6.06358
20.5 6.08194
20.54 6.23826
20.58 6.2934
20.62 6.3166
20.66 6.46686
20.7 6.97209
20.74 8.36802
20.78 9.94407
20.82 11.0981
20.86 11.8751
20.9 11.5472
20.94 10.5077
20.98 9.24744
21.02 8.10959
21.06 7.21534
21.1 6.76057
21.14 6.55875
21.18 6.47693
21.22 6.40694
21.26 6.48413
21.3 6.45139
21.34 6.47856
21.38 6.47421
21.42 6.44696
21.46 6.5335
21.5 6.47778
21.54 6.56642
21.58 6.4527
21.62 6.50782
21.66 6.52947
21.7 6.51749
21.74 6.60679
21.78 6.60024
21.82 6.61737
21.86 6.65145
21.9 6.64305
21.94 6.5978
21.98 6.66951
22.02 6.75768
22.06 6.65093
22.1 6.76413
22.14 6.72534
22.18 6.76569
22.22 6.7269
22.26 6.65231
22.3 6.7492
22.34 6.73022
22.38 6.77221
22.42 6.79639
22.46 6.84759
22.5 6.9108
22.54 7.14083
22.58 7.13016
22.62 7.14321
22.66 7.09953
22.7 7.03557
22.74 7.05696
22.78 7.16167
22.82 6.96377
22.86 6.98006
22.9 7.06758
22.94 7.03503
22.98 6.90215
23.02 6.8581
23.06 6.86886
23.1 7.04922
23.14 7.10998
23.18 7.12627
23.22 7.0295
23.26 7.14969
23.3 7.25582
23.34 7.17906
23.38 7.1028
23.42 7.12023
23.46 7.14828
23.5 7.26012
23.54 7.20572
23.58 7.22844
23.62 7.24125
23.66 7.19769
23.7 7.14386
23.74 7.22695
23.78 7.25198
23.82 7.06969
23.86 7.20104
23.9 7.2002
23.94 7.14417
23.98 7.26488
24.02 7.19918
24.06 7.04999
24.1 7.20531
24.14 7.04669
24.18 7.1384
24.22 7.203
24.26 7.24957
24.3 7.17324
24.34 7.26522
24.38 7.24675
24.42 7.21644
24.46 7.21223
24.5 7.21909
24.54 7.22301
24.58 7.1325
24.62 7.21708
24.66 7.21709
24.7 7.24152
24.74 7.29525
24.78 7.26917
24.82 7.16687
24.86 7.2259
24.9 7.29688
24.94 7.12936
24.98 7.20668
25.02 7.27362
25.06 7.27122
25.1 7.14203
25.14 7.21805
25.18 7.32757
25.22 7.51934
25.26 7.79107
25.3 8.59741
25.34 9.28307
25.38 9.5367
25.42 9.31979
25.46 8.6009
25.5 7.98111
25.54 7.52966
25.58 7.31855
25.62 7.51629
25.66 7.43386
25.7 7.28027
25.74 7.28179
25.78 7.36318
25.82 7.29461
25.86 7.18825
25.9 7.28484
25.94 7.28191
25.98 7.17804
26.02 7.26012
26.06 7.34355
26.1 7.15083
26.14 7.18918
26.18 7.28311
26.22 7.27084
26.26 7.24351
26.3 7.32297
26.34 7.27152
26.38 7.37202
26.42 7.43868
26.46 7.40791
26.5 7.19202
26.54 7.1577
26.58 7.23496
26.62 7.32546
26.66 7.28532
26.7 7.23555
26.74 7.04845
26.78 6.95594
26.82 7.19359
26.86 7.15086
26.9 7.2274
26.94 7.19516
26.98 7.15928
27.02 7.25125
27.06 7.1662
27.1 7.25984
27.14 7.45217
27.18 7.21879
27.22 7.20653
27.26 7.25607
27.3 7.36784
27.34 7.39896
27.38 7.28578
27.42 7.26189
27.46 7.37181
27.5 7.30339
27.54 7.23793
27.58 7.33968
27.62 7.41573
27.66 7.26607
27.7 7.20419
27.74 7.32628
27.78 7.25648
27.82 7.16308
27.86 7.13795
27.9 7.27196
27.94 7.26442
27.98 7.3442
28.02 7.38638
28.06 7.35064
28.1 7.31998
28.14 7.306
28.18 7.30187
28.22 7.27388
28.26 7.24335
28.3 7.24943
28.34 7.26494
28.38 7.39501
28.42 7.2884
28.46 7.41442
28.5 7.43541
28.54 7.29279
28.58 7.33994
28.62 7.29742
28.66 7.27147
28.7 7.28709
28.74 7.40295
28.78 7.43608
28.82 7.53507
28.86 7.66934
28.9 7.58852
28.94 7.67083
28.98 7.86852
29.02 8.07054
29.06 8.39621
29.1 8.94012
29.14 9.45122
29.18 10.5631
29.22 13.5484
29.26 19.8977
29.3 31.5112
29.34 36.2857
29.38 38.3682
29.42 32.6061
29.46 26.4539
29.5 18.8606
29.54 13.1963
29.58 10.9838
29.62 9.14559
29.66 8.12067
29.7 7.82585
29.74 7.54513
29.78 7.47685
29.82 7.29654
29.86 7.36015
29.9 7.30383
29.94 7.21656
29.98 7.3307
30.02 7.35718
30.06 7.32522
30.1 7.0946
30.14 7.21815
30.18 7.19425
30.22 7.1812
30.26 7.09036
30.3 7.13659
30.34 7.08916
30.38 7.16364
30.42 7.26764
30.46 7.15347
30.5 7.01475
30.54 7.08207
30.58 7.02249
30.62 6.90598
30.66 7.05079
30.7 6.97684
30.74 6.90369
30.78 6.84246
30.82 7.01791
30.86 6.98448
30.9 6.86825
30.94 6.87161
30.98 6.8768
31.02 6.81655
31.06 6.85991
31.1 6.86669
31.14 6.73309
31.18 6.75397
31.22 6.81049
31.26 6.72059
31.3 6.86543
31.34 6.87482
31.38 6.9843
31.42 6.84546
31.46 6.78672
31.5 6.96317
31.54 6.77965
31.58 6.76808
31.62 6.76344
31.66 6.91222
31.7 6.81262
31.74 6.73211
31.78 6.72459
31.82 6.90132
31.86 6.73537
31.9 6.78605
31.94 6.75016
31.98 6.72092
32.02 6.77492
32.06 6.68975
32.1 6.76994
32.14 6.82226
32.18 6.66809
32.22 6.76228
32.26 6.73859
32.3 6.66449
32.34 6.71648
32.38 6.65174
32.42 6.69459
32.46 6.76951
32.5 6.8117
32.54 6.65757
32.58 6.68388
32.62 6.8586
32.66 7.07812
32.7 7.25175
32.74 7.82133
32.78 8.98722
32.82 10.9118
32.86 12.1268
32.9 12.7208
32.94 12.3719
32.98 11.2965
33.02 9.98971
33.06 8.55413
33.1 7.63631
33.14 7.07594
33.18 6.80641
33.22 6.71324
33.26 6.57092
33.3 6.32298
33.34 6.41539
33.38 6.39723
33.42 6.38136
33.46 6.4331
33.5 6.53266
33.54 6.6232
33.58 6.52016
33.62 6.36044
33.66 6.48931
33.7 6.50129
33.74 6.50791
33.78 6.32511
33.82 6.18083
33.86 6.38185
33.9 6.40556
33.94 6.27603
33.98 6.31135
34.02 6.26466
34.06 6.40183
34.1 6.40819
34.14 6.17192
34.18 6.23074
34.22 6.11706
34.26 6.15842
34.3 6.15841
34.34 6.35351
34.38 6.24783
34.42 6.19265
34.46 6.27286
34.5 6.14258
34.54 6.1904
34.58 6.19645
34.62 6.20152
34.66 6.11051
34.7 6.00595
34.74 6.2299
34.78 6.12033
34.82 6.00937
34.86 5.93376
34.9 6.0447
34.94 6.00682
34.98 6.04657
35.02 6.12509
35.06 6.08711
35.1 6.05422
35.14 6.02535
35.18 5.85
35.22 5.95749
35.26 6.04546
35.3 6.0055
35.34 5.94419
35.38 5.87427
35.42 5.99163
35.46 5.88335
35.5 5.84266
35.54 5.95259
35.58 5.90195
35.62 6.1032
35.66 6.00466
35.7 5.89974
35.74 5.89862
35.78 5.88872
35.82 6.01347
35.86 6.08624
35.9 6.58146
35.94 7.52169
35.98 7.95069
36.02 7.92388
36.06 7.65616
36.1 7.00334
36.14 6.61951
36.18 6.11807
36.22 5.88745
36.26 5.86646
36.3 5.80424
36.34 5.68462
36.38 5.67242
36.42 5.65342
36.46 5.60839
36.5 5.78408
36.54 5.70614
36.58 5.55562
36.62 5.41314
36.66 5.46592
36.7 5.58248
36.74 5.60302
36.78 5.54756
36.82 5.46323
36.86 5.5484
36.9 5.47679
36.94 5.44428
36.98 5.44175
37.02 5.55484
37.06 5.53027
37.1 5.37155
37.14 5.44247
37.18 5.44268
37.22 5.37757
37.26 5.32721
37.3 5.29879
37.34 5.33842
37.38 5.40545
37.42 5.45394
37.46 5.45476
37.5 5.49089
37.54 5.42243
37.58 5.4357
37.62 5.29176
37.66 5.38921
37.7 5.53327
37.74 5.39503
37.78 5.31298
37.82 5.27733
37.86 5.24366
37.9 5.26961
37.94 5.30525
37.98 5.27437
38.02 5.29833
38.06 5.26086
38.1 5.28754
38.14 5.36264
38.18 5.18378
38.22 5.21011
38.26 5.18806
38.3 5.24482
38.34 5.29548
38.38 5.25913
38.42 5.05864
38.46 5.15876
38.5 5.20236
38.54 5.32896
38.58 5.28779
38.62 5.29124
38.66 5.204
38.7 5.22495
38.74 5.19323
38.78 5.16204
38.82 5.13068
38.86 5.11657
38.9 5.1544
38.94 5.02488
38.98 5.21603
39.02 5.18586
39.06 5.12116
39.1 5.17358
39.14 5.17635
39.18 5.21074
39.22 5.18393
39.26 5.00152
39.3 5.1789
39.34 5.13029
39.38 5.06333
39.42 5.0703
39.46 4.96849
39.5 4.90421
39.54 4.99796
39.58 5.01564
39.62 5.00303
39.66 5.07295
39.7 5.15255
39.74 4.99549
39.78 4.9502
39.82 4.99358
39.86 4.97577
39.9 5.07937
39.94 4.93794
39.98 5.00899
40.02 5.06985
40.06 5.1196
40.1 5.04514
40.14 5.00881
40.18 5.09111
40.22 5.08382
40.26 5.08917
40.3 5.0583
40.34 4.92868
40.38 5.02054
40.42 5.06903
40.46 5.04706
40.5 5.00006
40.54 4.84985
40.58 4.99105
40.62 5.07613
40.66 4.94159
40.7 5.1035
40.74 5.02454
40.78 4.96954
40.82 4.98696
40.86 4.92034
40.9 4.92787
40.94 5.15065
40.98 5.16732
41.02 4.94222
41.06 4.9689
41.1 5.00872
41.14 5.00717
41.18 5.09643
41.22 4.97546
41.26 4.98193
41.3 5.1071
41.34 5.07614
41.38 5.07353
41.42 5.14453
41.46 5.17341
41.5 5.27364
41.54 5.2281
41.58 5.39934
41.62 5.78123
41.66 6.49387
41.7 7.49499
41.74 8.37952
41.78 8.70347
41.82 8.54513
41.86 7.98874
41.9 7.22951
41.94 6.53015
41.98 6.00627
42.02 5.75078
42.06 5.38879
42.1 5.20225
42.14 5.08465
42.18 5.16042
42.22 5.27443
42.26 5.14514
42.3 5.0941
42.34 5.1563
42.38 5.15593
42.42 5.10464
42.46 5.04761
42.5 5.13266
42.54 5.07807
42.58 5.00191
42.62 4.91209
42.66 4.99021
42.7 5.00847
42.74 4.9015
42.78 4.85365
42.82 5.05298
42.86 5.06956
42.9 4.92955
42.94 4.90005
42.98 5.00652
43.02 5.15732
43.06 4.98711
43.1 5.01389
43.14 5.03677
43.18 5.17044
43.22 4.97015
43.26 5.06349
43.3 4.96663
43.34 5.09599
43.38 5.02264
43.42 4.93992
43.46 4.95155
43.5 4.96247
43.54 4.90585
43.58 4.97752
43.62 5.13882
43.66 5.00607
43.7 4.91125
43.74 4.82247
43.78 4.84588
43.82 5.01577
43.86 4.93978
43.9 4.95779
43.94 5.01736
43.98 4.86136
44.02 4.90312
44.06 5.01305
44.1 5.09786
44.14 5.10302
44.18 5.17539
44.22 5.2189
44.26 5.36028
44.3 6.0333
44.34 6.7997
44.38 7.18062
44.42 7.50169
44.46 7.57247
44.5 7.29198
44.54 6.80079
44.58 6.22289
44.62 5.69699
44.66 5.44671
44.7 5.24673
44.74 5.19677
44.78 5.07406
44.82 5.05678
44.86 5.05292
44.9 5.0484
44.94 4.92465
44.98 4.94323
45.02 4.87172
45.06 5.01033
45.1 5.01405
45.14 5.03205
45.18 4.89496
45.22 4.86945
45.26 5.00061
45.3 4.94194
45.34 4.88609
45.38 4.94692
45.42 5.1115
45.46 4.99887
45.5 4.95208
45.54 4.87089
45.58 4.85427
45.62 4.89424
45.66 4.90764
45.7 4.86616
45.74 4.9619
45.78 5.04324
45.82 4.89928
45.86 4.87398
45.9 4.86229
45.94 4.80576
45.98 4.78842
46.02 4.84091
46.06 4.77302
46.1 4.65556
46.14 4.74484
46.18 4.70797
46.22 4.64805
46.26 4.67659
46.3 4.71322
46.34 4.97356
46.38 4.98748
46.42 4.97152
46.46 4.98082
46.5 4.99399
46.54 4.83837
46.58 4.8401
46.62 4.8841
46.66 4.83267
46.7 4.73635
46.74 4.72914
46.78 4.8308
46.82 5.03132
46.86 5.21766
46.9 5.11985
46.94 4.84679
46.98 4.77174
47.02 4.86716
47.06 4.92765
47.1 4.83022
47.14 4.78723
47.18 4.79729
47.22 4.81284
47.26 4.78193
47.3 4.69275
47.34 4.59544
47.38 4.67662
47.42 4.74353
47.46 4.51635
47.5 4.66734
47.54 4.74289
47.58 4.80083
47.62 4.8046
47.66 4.689
47.7 4.61605
47.74 4.51211
47.78 4.63785
47.82 4.71498
47.86 4.64315
47.9 4.59966
47.94 4.65156
47.98 4.53799
48.02 4.56994
48.06 4.70958
48.1 4.74714
48.14 4.57197
48.18 4.45817
48.22 4.52873
48.26 4.54686
48.3 4.57136
48.34 4.65265
48.38 4.51836
48.42 4.54578
48.46 4.63825
48.5 4.63573
48.54 4.59234
48.58 4.54471
48.62 4.43635
48.66 4.52499
48.7 4.62213
48.74 4.43544
48.78 4.5108
48.82 4.45467
48.86 4.51127
48.9 4.59025
48.94 4.66077
48.98 4.54896
49.02 4.49642
49.06 4.51334
49.1 4.49354
49.14 4.42774
49.18 4.59579
49.22 4.60872
49.26 4.62941
49.3 4.57981
49.34 4.5098
49.38 4.43986
49.42 4.59884
49.46 4.55678
49.5 4.46203
49.54 4.45395
49.58 4.468
49.62 4.54894
49.66 4.48284
49.7 4.53776
49.74 4.44575
49.78 4.425
49.82 4.51807
49.86 4.45257
49.9 4.33324
49.94 4.45224
49.98 4.47251
50.02 4.38408
50.06 4.37635
50.1 4.33561
50.14 4.4596
50.18 4.49827
50.22 4.40887
50.26 4.42469
50.3 4.50584
50.34 4.39743
50.38 4.37654
50.42 4.47221
50.46 4.36465
50.5 4.482
50.54 4.50298
50.58 4.44553
50.62 4.30257
50.66 4.44524
50.7 4.5337
50.74 4.38714
50.78 4.46155
50.82 4.54454
50.86 4.44753
50.9 4.42117
50.94 4.42404
50.98 4.5026
51.02 4.43088
51.06 4.38393
51.1 4.57719
51.14 4.53697
51.18 4.58615
51.22 4.44859
51.26 4.40895
51.3 4.42711
51.34 4.44247
51.38 4.36303
51.42 4.49793
51.46 4.54053
51.5 4.70928
51.54 4.94848
51.58 5.18135
51.62 5.3799
51.66 5.36926
51.7 5.23244
51.74 5.15533
51.78 4.91129
51.82 4.74019
51.86 4.5786
51.9 4.63726
51.94 4.63797
51.98 4.47011
52.02 4.59847
52.06 4.49938
52.1 4.46035
52.14 4.36175
52.18 4.28363
52.22 4.38671
52.26 4.34854
52.3 4.40514
52.34 4.51839
52.38 4.49393
52.42 4.47995
52.46 4.44912
52.5 4.38769
52.54 4.45486
52.58 4.52769
52.62 4.36504
52.66 4.44072
52.7 4.53714
52.74 4.61482
52.78 4.45597
52.82 4.44385
52.86 4.33568
52.9 4.27125
52.94 4.36109
52.98 4.44333
53.02 4.51642
53.06 4.55662
53.1 4.51766
53.14 4.45653
53.18 4.35403
53.22 4.41511
53.26 4.34402
53.3 4.40423
53.34 4.40686
53.38 4.29548
53.42 4.41308
53.46 4.39993
53.5 4.34494
53.54 4.39464
53.58 4.43677
53.62 4.30069
53.66 4.30947
53.7 4.44101
53.74 4.49959
53.78 4.59288
53.82 4.65165
53.86 4.67117
53.9 4.80062
53.94 4.8195
53.98 4.63463
54.02 4.55968
54.06 4.65771
54.1 4.60413
54.14 4.43212
54.18 4.46337
54.22 4.31336
54.26 4.33185
54.3 4.34403
54.34 4.31851
54.38 4.33226
54.42 4.34949
54.46 4.36157
54.5 4.35159
54.54 4.35946
54.58 4.39109
54.62 4.32785
54.66 4.35411
54.7 4.33716
54.74 4.41073
54.78 4.40561
54.82 4.38995
54.86 4.35727
54.9 4.34712
54.94 4.47531
54.98 4.41074
55.02 4.42771
55.06 4.28435
55.1 4.36192
55.14 4.38076
55.18 4.24089
55.22 4.21879
55.26 4.22209
55.3 4.27815
55.34 4.33102
55.38 4.52519
55.42 4.43342
55.46 4.52534
55.5 4.65568
55.54 4.8606
55.58 4.86976
55.62 4.79552
55.66 4.70858
55.7 4.55353
55.74 4.38184
55.78 4.38125
55.82 4.751
55.86 4.76622
55.9 4.48334
55.94 4.66722
55.98 4.68632
56.02 4.84645
56.06 4.85497
56.1 5.00428
56.14 4.74225
56.18 4.59902
56.22 5.01061
56.26 5.06661
56.3 4.89771
56.34 4.84249
56.38 4.89561
56.42 4.79456
56.46 4.99922
56.5 4.81461
56.54 4.9934
56.58 4.63299
56.62 4.55348
56.66 5.45667
56.7 4.88121
56.74 4.42944
56.78 5.29451
56.82 6.83247
56.86 5.69297
56.9 3.03859