File: data/XRD_data/2018_8-7XRD/2018_8-7 FAGACs_try2001_exported.xy
'Id: "" Comment: "Integrate frame 2018_8-7 FAGACs_try2001.gfrmwith cursor Full Frame Cursor #1" Operator: "MAF user" Anode: "Cu" Scantype: "TwoTheta" TimePerStep: "90"
10.74 6.10049
10.78 6.25424
10.82 5.77212
10.86 5.57132
10.9 5.15311
10.94 5.01231
10.98 4.73106
11.02 4.8526
11.06 4.99455
11.1 4.61324
11.14 4.6302
11.18 4.74057
11.22 4.70654
11.26 4.75432
11.3 4.69799
11.34 4.64529
11.38 4.75914
11.42 4.6833
11.46 4.5815
11.5 4.49987
11.54 4.50542
11.58 4.41085
11.62 4.52638
11.66 4.79156
11.7 4.67309
11.74 4.56656
11.78 4.57403
11.82 4.54723
11.86 4.4827
11.9 4.40857
11.94 4.62335
11.98 4.86924
12.02 4.80816
12.06 4.76592
12.1 4.65405
12.14 4.63567
12.18 4.67552
12.22 4.67253
12.26 4.52288
12.3 4.48055
12.34 4.6039
12.38 4.70543
12.42 4.72956
12.46 4.62535
12.5 4.55066
12.54 4.65959
12.58 4.61157
12.62 4.54314
12.66 4.67349
12.7 4.58575
12.74 4.69394
12.78 4.6492
12.82 4.54106
12.86 4.55805
12.9 4.65754
12.94 4.64375
12.98 4.57492
13.02 4.6033
13.06 4.63222
13.1 4.58181
13.14 4.71986
13.18 4.7774
13.22 4.74857
13.26 4.66629
13.3 4.69045
13.34 4.74293
13.38 4.69898
13.42 4.68675
13.46 4.61297
13.5 4.62481
13.54 4.75316
13.58 4.74447
13.62 4.67944
13.66 4.61043
13.7 4.68767
13.74 4.78206
13.78 4.83374
13.82 4.727
13.86 4.79647
13.9 4.81464
13.94 4.83132
13.98 4.74328
14.02 4.75083
14.06 4.7653
14.1 4.81647
14.14 4.9353
14.18 4.93431
14.22 4.92012
14.26 4.9692
14.3 4.95108
14.34 4.98973
14.38 5.0187
14.42 5.15783
14.46 5.26675
14.5 5.39628
14.54 5.63987
14.58 6.13348
14.62 6.76469
14.66 7.77268
14.7 9.38147
14.74 10.7101
14.78 11.8422
14.82 12.1353
14.86 11.2471
14.9 9.83488
14.94 8.25186
14.98 6.97856
15.02 6.21062
15.06 5.68413
15.1 5.47055
15.14 5.30381
15.18 5.1237
15.22 4.98668
15.26 4.95347
15.3 4.91879
15.34 4.86138
15.38 4.85525
15.42 4.93937
15.46 4.91199
15.5 4.75114
15.54 4.74374
15.58 4.67914
15.62 4.85207
15.66 4.78167
15.7 4.7
15.74 4.67798
15.78 4.77226
15.82 4.61159
15.86 4.58546
15.9 4.61783
15.94 4.72955
15.98 4.75347
16.02 4.80626
16.06 4.85314
16.1 4.83895
16.14 4.79256
16.18 4.83934
16.22 4.84702
16.26 4.78667
16.3 4.79262
16.34 4.81831
16.38 4.88227
16.42 4.89112
16.46 4.85335
16.5 4.80805
16.54 4.90109
16.58 4.85955
16.62 4.79801
16.66 4.76581
16.7 4.92389
16.74 4.93421
16.78 4.9051
16.82 4.83547
16.86 4.85028
16.9 4.94692
16.94 4.97351
16.98 4.95256
17.02 4.83644
17.06 4.84526
17.1 4.9588
17.14 4.92002
17.18 4.88008
17.22 4.94305
17.26 4.85726
17.3 4.84323
17.34 4.92055
17.38 4.89101
17.42 4.95293
17.46 4.86684
17.5 4.93692
17.54 4.91646
17.58 4.92366
17.62 4.94582
17.66 4.92767
17.7 5.02571
17.74 5.02766
17.78 5.011
17.82 4.97961
17.86 5.0682
17.9 4.95193
17.94 4.99796
17.98 5.00769
18.02 5.05176
18.06 5.09123
18.1 5.10382
18.14 5.08525
18.18 5.09546
18.22 5.04409
18.26 5.19613
18.3 5.15645
18.34 5.11975
18.38 5.16743
18.42 5.22134
18.46 5.19225
18.5 5.28764
18.54 5.25495
18.58 5.25516
18.62 5.19724
18.66 5.28783
18.7 5.31827
18.74 5.29283
18.78 5.2071
18.82 5.25084
18.86 5.34648
18.9 5.3139
18.94 5.29746
18.98 5.38877
19.02 5.41627
19.06 5.44938
19.1 5.49191
19.14 5.44439
19.18 5.45458
19.22 5.42658
19.26 5.44838
19.3 5.50164
19.34 5.58805
19.38 5.62559
19.42 5.6305
19.46 5.61944
19.5 5.58374
19.54 5.58548
19.58 5.67753
19.62 5.65074
19.66 5.63945
19.7 5.63632
19.74 5.76524
19.78 5.67661
19.82 5.73098
19.86 5.67287
19.9 5.60911
19.94 5.70157
19.98 5.83073
20.02 5.73601
20.06 5.73538
20.1 5.8323
20.14 5.79364
20.18 5.93114
20.22 5.90175
20.26 5.91476
20.3 5.97892
20.34 6.00977
20.38 5.90655
20.42 6.04464
20.46 6.1249
20.5 6.09398
20.54 6.187
20.58 6.24148
20.62 6.24949
20.66 6.40827
20.7 6.55419
20.74 6.75034
20.78 7.11029
20.82 7.84803
20.86 8.58835
20.9 9.1371
20.94 9.60488
20.98 9.75008
21.02 9.54576
21.06 8.99635
21.1 8.32715
21.14 7.7874
21.18 7.24566
21.22 7.05106
21.26 6.78946
21.3 6.62469
21.34 6.56153
21.38 6.57093
21.42 6.60946
21.46 6.45269
21.5 6.46238
21.54 6.55654
21.58 6.5676
21.62 6.4381
21.66 6.49016
21.7 6.58968
21.74 6.55027
21.78 6.5372
21.82 6.48904
21.86 6.51229
21.9 6.71103
21.94 6.73599
21.98 6.72285
22.02 6.62135
22.06 6.65077
22.1 6.53391
22.14 6.74913
22.18 6.75211
22.22 6.60719
22.26 6.60918
22.3 6.73925
22.34 6.73083
22.38 6.76747
22.42 6.73596
22.46 6.75597
22.5 6.76785
22.54 6.90476
22.58 7.01521
22.62 6.97538
22.66 6.80941
22.7 6.89996
22.74 6.91294
22.78 6.94069
22.82 6.81908
22.86 6.86422
22.9 6.85654
22.94 6.79471
22.98 6.82065
23.02 6.89369
23.06 6.89815
23.1 7.07406
23.14 7.0271
23.18 7.02216
23.22 7.178
23.26 7.19508
23.3 7.15708
23.34 7.18916
23.38 7.21953
23.42 7.32374
23.46 7.25438
23.5 7.33071
23.54 7.12841
23.58 7.22153
23.62 7.2414
23.66 7.26354
23.7 7.30309
23.74 7.26339
23.78 7.27947
23.82 7.31995
23.86 7.27966
23.9 7.22272
23.94 7.23867
23.98 7.16198
24.02 7.23077
24.06 7.16892
24.1 7.11384
24.14 7.18019
24.18 7.22928
24.22 7.18407
24.26 7.13285
24.3 7.18796
24.34 7.16401
24.38 7.12759
24.42 7.21471
24.46 7.18006
24.5 7.26206
24.54 7.23765
24.58 7.13965
24.62 7.28101
24.66 7.29968
24.7 7.22105
24.74 7.17152
24.78 7.2052
24.82 7.16496
24.86 7.18623
24.9 7.284
24.94 7.15749
24.98 7.12085
25.02 7.28312
25.06 7.33386
25.1 7.25778
25.14 7.25428
25.18 7.30283
25.22 7.31366
25.26 7.41834
25.3 7.57658
25.34 7.66109
25.38 7.97774
25.42 8.12436
25.46 8.13794
25.5 8.1417
25.54 8.35925
25.58 8.2069
25.62 7.9179
25.66 7.6871
25.7 7.63291
25.74 7.58184
25.78 7.59408
25.82 7.57972
25.86 7.46932
25.9 7.4633
25.94 7.40554
25.98 7.47975
26.02 7.39266
26.06 7.37224
26.1 7.30918
26.14 7.49012
26.18 7.422
26.22 7.28186
26.26 7.34808
26.3 7.58881
26.34 7.53682
26.38 7.47146
26.42 7.45004
26.46 7.47293
26.5 7.47971
26.54 7.38069
26.58 7.24377
26.62 7.5046
26.66 7.26795
26.7 7.31673
26.74 7.33874
26.78 7.35916
26.82 7.26628
26.86 7.38376
26.9 7.39035
26.94 7.27673
26.98 7.19125
27.02 7.18727
27.06 7.30942
27.1 7.32844
27.14 7.39689
27.18 7.3328
27.22 7.23432
27.26 7.36216
27.3 7.31473
27.34 7.39341
27.38 7.38008
27.42 7.42698
27.46 7.51233
27.5 7.3078
27.54 7.31459
27.58 7.27499
27.62 7.45882
27.66 7.38792
27.7 7.3435
27.74 7.36404
27.78 7.39994
27.82 7.26447
27.86 7.10775
27.9 7.20638
27.94 7.24307
27.98 7.14317
28.02 7.22066
28.06 7.22969
28.1 7.23798
28.14 7.28633
28.18 7.23033
28.22 7.29077
28.26 7.32732
28.3 7.23278
28.34 7.29484
28.38 7.35164
28.42 7.21539
28.46 7.33644
28.5 7.29481
28.54 7.22523
28.58 7.31607
28.62 7.23996
28.66 7.22402
28.7 7.36761
28.74 7.48234
28.78 7.31341
28.82 7.34437
28.86 7.33201
28.9 7.27779
28.94 7.34054
28.98 7.39517
29.02 7.48305
29.06 7.51582
29.1 7.51208
29.14 7.45123
29.18 7.58736
29.22 7.94268
29.26 8.21282
29.3 8.6424
29.34 9.24631
29.38 10.0463
29.42 11.0618
29.46 12.0654
29.5 12.9753
29.54 12.9271
29.58 12.4253
29.62 11.4196
29.66 10.3234
29.7 9.49272
29.74 8.91284
29.78 8.31426
29.82 7.99833
29.86 7.79684
29.9 7.48449
29.94 7.39014
29.98 7.4664
30.02 7.37111
30.06 7.22769
30.1 7.12175
30.14 7.09968
30.18 7.17877
30.22 7.25239
30.26 7.10598
30.3 7.10977
30.34 7.09195
30.38 7.11518
30.42 7.1114
30.46 7.0827
30.5 7.0387
30.54 6.97846
30.58 6.85311
30.62 6.84676
30.66 6.90142
30.7 6.85348
30.74 6.81807
30.78 6.99789
30.82 6.90586
30.86 6.95592
30.9 6.96684
30.94 6.99331
30.98 6.92697
31.02 6.7666
31.06 6.71616
31.1 6.84862
31.14 6.94486
31.18 6.86614
31.22 6.87198
31.26 6.78689
31.3 6.88725
31.34 6.87847
31.38 6.81989
31.42 6.85347
31.46 6.91178
31.5 6.84137
31.54 6.77103
31.58 6.81733
31.62 6.80668
31.66 6.92856
31.7 6.93323
31.74 6.83409
31.78 6.64716
31.82 6.68793
31.86 6.719
31.9 6.79995
31.94 6.78474
31.98 6.72476
32.02 6.63195
32.06 6.675
32.1 6.74228
32.14 6.83887
32.18 6.77605
32.22 6.74531
32.26 6.81879
32.3 6.76644
32.34 6.71657
32.38 6.72084
32.42 6.58369
32.46 6.66026
32.5 6.88255
32.54 6.6938
32.58 6.6542
32.62 6.68778
32.66 6.84426
32.7 6.91756
32.74 6.95075
32.78 7.09384
32.82 7.35409
32.86 7.61395
32.9 8.04076
32.94 8.57693
32.98 9.16585
33.02 9.53356
33.06 9.57338
33.1 9.64223
33.14 9.33876
33.18 8.68446
33.22 8.0866
33.26 7.56005
33.3 7.24809
33.34 7.09219
33.38 6.90738
33.42 6.65132
33.46 6.63125
33.5 6.58482
33.54 6.66321
33.58 6.50925
33.62 6.48962
33.66 6.46052
33.7 6.36631
33.74 6.34108
33.78 6.27825
33.82 6.25833
33.86 6.22712
33.9 6.18888
33.94 6.16275
33.98 6.17121
34.02 6.17619
34.06 6.20788
34.1 6.0788
34.14 6.08945
34.18 6.08742
34.22 6.05269
34.26 6.1645
34.3 6.1817
34.34 6.00802
34.38 6.00706
34.42 6.06979
34.46 6.09751
34.5 6.03277
34.54 6.01244
34.58 6.03586
34.62 5.92258
34.66 5.90585
34.7 5.87717
34.74 5.84882
34.78 5.84888
34.82 5.86475
34.86 5.89343
34.9 5.97365
34.94 5.97029
34.98 6.05345
35.02 6.02446
35.06 6.04996
35.1 6.09973
35.14 5.89706
35.18 5.87148
35.22 5.90337
35.26 5.80793
35.3 5.9011
35.34 5.86749
35.38 5.6586
35.42 5.68836
35.46 5.75697
35.5 5.78213
35.54 5.77387
35.58 5.72831
35.62 5.58404
35.66 5.66189
35.7 5.76129
35.74 5.78571
35.78 5.66451
35.82 5.78485
35.86 5.74576
35.9 5.72246
35.94 5.83994
35.98 5.9368
36.02 6.02574
36.06 6.28316
36.1 6.55147
36.14 6.60225
36.18 6.88697
36.22 6.86982
36.26 6.75814
36.3 6.62214
36.34 6.33996
36.38 6.20991
36.42 6.02756
36.46 5.75418
36.5 5.82643
36.54 5.74002
36.58 5.53485
36.62 5.39669
36.66 5.44976
36.7 5.537
36.74 5.44316
36.78 5.52669
36.82 5.495
36.86 5.35848
36.9 5.35533
36.94 5.38914
36.98 5.31386
37.02 5.26039
37.06 5.25881
37.1 5.30859
37.14 5.23326
37.18 5.36594
37.22 5.3555
37.26 5.23218
37.3 5.22548
37.34 5.32417
37.38 5.2811
37.42 5.22559
37.46 5.26735
37.5 5.21395
37.54 5.23451
37.58 5.22335
37.62 5.10252
37.66 5.16141
37.7 5.10997
37.74 5.27897
37.78 5.24998
37.82 5.16677
37.86 5.19286
37.9 5.14899
37.94 5.17276
37.98 5.19266
38.02 5.0445
38.06 5.13268
38.1 5.19761
38.14 5.02543
38.18 5.0523
38.22 5.03264
38.26 5.10045
38.3 5.19486
38.34 5.07586
38.38 5.05916
38.42 5.23586
38.46 5.15489
38.5 5.08005
38.54 5.04543
38.58 4.9484
38.62 4.95689
38.66 5.04759
38.7 5.11371
38.74 5.00954
38.78 4.97122
38.82 4.96261
38.86 5.02162
38.9 5.02443
38.94 4.92186
38.98 4.93623
39.02 4.96888
39.06 5.06414
39.1 4.99581
39.14 4.93453
39.18 5.0052
39.22 4.99477
39.26 5.05487
39.3 4.98768
39.34 5.01733
39.38 5.03358
39.42 4.96218
39.46 4.90309
39.5 4.95899
39.54 5.12165
39.58 5.23645
39.62 5.18195
39.66 5.13295
39.7 5.1549
39.74 5.2979
39.78 5.25393
39.82 5.10114
39.86 5.12514
39.9 5.22897
39.94 5.03701
39.98 4.97459
40.02 5.00351
40.06 4.95537
40.1 5.04305
40.14 5.03365
40.18 5.02299
40.22 5.00579
40.26 5.10602
40.3 5.10977
40.34 5.02546
40.38 5.05548
40.42 5.06329
40.46 5.08214
40.5 5.15759
40.54 5.27141
40.58 5.18044
40.62 5.32934
40.66 5.23843
40.7 5.12852
40.74 5.12643
40.78 5.14236
40.82 5.08033
40.86 5.07825
40.9 5.21791
40.94 5.17178
40.98 5.16053
41.02 5.08188
41.06 4.99871
41.1 5.05928
41.14 5.02761
41.18 5.06665
41.22 4.989
41.26 4.92594
41.3 4.9973
41.34 5.16383
41.38 5.1681
41.42 5.05485
41.46 4.91133
41.5 5.07767
41.54 5.0313
41.58 5.03691
41.62 5.11901
41.66 5.10087
41.7 5.24364
41.74 5.46852
41.78 5.63028
41.82 5.8656
41.86 6.13348
41.9 6.52627
41.94 6.88914
41.98 7.08809
42.02 7.07258
42.06 6.97233
42.1 6.90884
42.14 6.50127
42.18 6.15266
42.22 5.90354
42.26 5.59455
42.3 5.48467
42.34 5.4506
42.38 5.32456
42.42 5.189
42.46 5.11652
42.5 5.04776
42.54 5.01766
42.58 5.0226
42.62 4.991
42.66 4.92519
42.7 5.00923
42.74 4.96503
42.78 4.95848
42.82 4.94183
42.86 4.86538
42.9 4.81996
42.94 4.84286
42.98 4.96306
43.02 4.88858
43.06 4.82892
43.1 4.92989
43.14 4.88332
43.18 4.89703
43.22 4.97997
43.26 4.92546
43.3 4.88959
43.34 4.84269
43.38 4.97731
43.42 4.88343
43.46 4.87091
43.5 4.93633
43.54 4.90987
43.58 4.76333
43.62 4.80133
43.66 4.80522
43.7 4.77566
43.74 4.82518
43.78 4.79867
43.82 4.75789
43.86 4.75707
43.9 4.8778
43.94 4.90471
43.98 4.81984
44.02 4.79022
44.06 4.74669
44.1 4.70396
44.14 4.81928
44.18 4.96622
44.22 4.87898
44.26 4.90622
44.3 4.86122
44.34 4.92392
44.38 5.02759
44.42 5.14462
44.46 5.23594
44.5 5.48507
44.54 5.87969
44.58 5.96341
44.62 6.01091
44.66 6.0667
44.7 5.97328
44.74 5.8233
44.78 5.68592
44.82 5.53964
44.86 5.38164
44.9 5.25168
44.94 5.16464
44.98 5.07685
45.02 4.92524
45.06 4.79705
45.1 4.84832
45.14 4.83147
45.18 4.92104
45.22 5.00661
45.26 4.89855
45.3 4.82547
45.34 4.86394
45.38 4.72538
45.42 4.722
45.46 4.69358
45.5 4.77038
45.54 4.77859
45.58 4.67834
45.62 4.72704
45.66 4.74053
45.7 4.70209
45.74 4.68391
45.78 4.64498
45.82 4.63431
45.86 4.6641
45.9 4.80248
45.94 4.89192
45.98 4.69524
46.02 4.66789
46.06 4.78704
46.1 4.7789
46.14 4.68977
46.18 4.81321
46.22 4.68304
46.26 4.66541
46.3 4.66963
46.34 4.61196
46.38 4.7478
46.42 4.75269
46.46 4.76252
46.5 4.65215
46.54 4.69614
46.58 4.56405
46.62 4.56287
46.66 4.75533
46.7 4.79506
46.74 4.61684
46.78 4.72605
46.82 4.75473
46.86 4.68238
46.9 4.69098
46.94 4.69883
46.98 4.67749
47.02 4.79416
47.06 4.90578
47.1 4.75314
47.14 4.67004
47.18 4.76325
47.22 4.73938
47.26 4.76293
47.3 4.71677
47.34 4.70022
47.38 4.63419
47.42 4.742
47.46 4.69989
47.5 4.67518
47.54 4.6211
47.58 4.53929
47.62 4.52743
47.66 4.58592
47.7 4.64297
47.74 4.57649
47.78 4.5494
47.82 4.55984
47.86 4.54372
47.9 4.57689
47.94 4.53465
47.98 4.4215
48.02 4.44054
48.06 4.55559
48.1 4.58596
48.14 4.55134
48.18 4.53972
48.22 4.51828
48.26 4.37719
48.3 4.46212
48.34 4.54418
48.38 4.51908
48.42 4.4895
48.46 4.54033
48.5 4.57832
48.54 4.47112
48.58 4.58986
48.62 4.57725
48.66 4.45969
48.7 4.4973
48.74 4.40889
48.78 4.50383
48.82 4.47279
48.86 4.29676
48.9 4.44527
48.94 4.48202
48.98 4.45056
49.02 4.51134
49.06 4.50303
49.1 4.38515
49.14 4.39968
49.18 4.44433
49.22 4.45631
49.26 4.42945
49.3 4.51423
49.34 4.51855
49.38 4.57289
49.42 4.42876
49.46 4.4331
49.5 4.5259
49.54 4.36763
49.58 4.26466
49.62 4.36753
49.66 4.46428
49.7 4.49496
49.74 4.31953
49.78 4.42795
49.82 4.49699
49.86 4.45707
49.9 4.41744
49.94 4.42731
49.98 4.4435
50.02 4.35458
50.06 4.43099
50.1 4.5323
50.14 4.31147
50.18 4.26711
50.22 4.30182
50.26 4.39953
50.3 4.37687
50.34 4.19961
50.38 4.33604
50.42 4.34363
50.46 4.39848
50.5 4.3159
50.54 4.38277
50.58 4.35243
50.62 4.26106
50.66 4.37111
50.7 4.43583
50.74 4.36984
50.78 4.43663
50.82 4.4021
50.86 4.28095
50.9 4.3899
50.94 4.45405
50.98 4.33292
51.02 4.2723
51.06 4.38528
51.1 4.47655
51.14 4.40643
51.18 4.3818
51.22 4.29249
51.26 4.27421
51.3 4.2558
51.34 4.36703
51.38 4.4233
51.42 4.37752
51.46 4.40331
51.5 4.34979
51.54 4.28159
51.58 4.33398
51.62 4.22995
51.66 4.4425
51.7 4.50079
51.74 4.56685
51.78 4.54042
51.82 4.59475
51.86 4.62464
51.9 4.62089
51.94 4.70343
51.98 4.64004
52.02 4.71191
52.06 4.55523
52.1 4.46635
52.14 4.52941
52.18 4.5552
52.22 4.28044
52.26 4.29485
52.3 4.49881
52.34 4.33994
52.38 4.31351
52.42 4.29112
52.46 4.37637
52.5 4.33886
52.54 4.33737
52.58 4.34607
52.62 4.28319
52.66 4.35586
52.7 4.39457
52.74 4.39918
52.78 4.42121
52.82 4.32636
52.86 4.37583
52.9 4.30641
52.94 4.32167
52.98 4.22051
53.02 4.12948
53.06 4.19408
53.1 4.32549
53.14 4.22988
53.18 4.24568
53.22 4.39408
53.26 4.30975
53.3 4.24485
53.34 4.22459
53.38 4.27826
53.42 4.38992
53.46 4.35032
53.5 4.32409
53.54 4.33819
53.58 4.33426
53.62 4.36948
53.66 4.42857
53.7 4.31697
53.74 4.24604
53.78 4.31577
53.82 4.26301
53.86 4.18715
53.9 4.27396
53.94 4.2899
53.98 4.18372
54.02 4.31353
54.06 4.36452
54.1 4.49033
54.14 4.59523
54.18 4.45861
54.22 4.50283
54.26 4.48775
54.3 4.42696
54.34 4.28054
54.38 4.37098
54.42 4.34753
54.46 4.21723
54.5 4.27489
54.54 4.34119
54.58 4.23434
54.62 4.2304
54.66 4.29793
54.7 4.25392
54.74 4.22116
54.78 4.18691
54.82 4.24184
54.86 4.27152
54.9 4.24074
54.94 4.2252
54.98 4.04699
55.02 4.18164
55.06 4.22684
55.1 4.31488
55.14 4.16075
55.18 4.18097
55.22 4.15217
55.26 4.17093
55.3 4.30764
55.34 4.28505
55.38 4.25818
55.42 4.37223
55.46 4.41473
55.5 4.28968
55.54 4.6295
55.58 4.54217
55.62 4.40866
55.66 4.41043
55.7 4.58974
55.74 4.483
55.78 4.46619
55.82 4.42266
55.86 4.64326
55.9 4.62
55.94 4.54596
55.98 4.63022
56.02 4.60971
56.06 4.47515
56.1 4.61065
56.14 4.67376
56.18 4.70084
56.22 4.64635
56.26 4.61406
56.3 4.81343
56.34 4.72401
56.38 4.70053
56.42 5.04072
56.46 4.95773
56.5 5.01067
56.54 4.94602
56.58 4.76503
56.62 5.00564
56.66 5.61024
56.7 5.48622
56.74 5.31933
56.78 5.0955
56.82 5.29584
56.86 8.09266
56.9 6.64757